# HDF: fcm_201403_060  
# /archive/messung/kmc/daten/2014/1Q/pilatus_201403_0953.tif
# Energy (eV)=8800 Distance (mm)=4.5326  Normalization factor =0.00050419669  Center=(497.5,538.2)  Binsize (nm-1)=0.0017
# Normalized by solid angle (1/distance^2), time (PilatusAcqTime_GRAL) and intensity (K4norm_mean)
# Detector quantum efficiency = 95.72% Monitor sensitivity (ph/s/A) = 4.538e+16 Sample thickness (mm) =1 Direct beam(photons * sr) = 0.5268
# q(nm-1)	I_norm	err_pois	err_stdv
0	0	935.64828	0
0.0017	0	494.84773	0
0.0034	0	362.783	9.8593988
0.0051	101.95813	300.47715	92.524191
0.0068	182.08458	270.97328	108.76136
0.0085	141.30302	258.79222	93.722735
0.0102	200.54197	250.77852	104.28826
0.0119	183.39448	237.62584	95.953402
0.0136	138.64088	225.64171	79.498328
0.0153	75.50503	215.20882	58.062784
0.017	107.96168	207.19627	65.506608
0.0187	176.90886	194.24283	76.852623
0.0204	147.69148	174.48024	63.741864
0.0221	135.98455	168.31656	86.900274
0.0238	1716.5085	224.87005	704.97289
0.0255	10097.304	440.38383	1650.9206
0.0272	20602.519	585.66009	2079.5381
0.0289	31237.147	745.66988	2012.0312
0.0306	34570.516	804.33231	1769.8669
0.0323	31102.775	713.34768	1796.6839
0.034	29016.942	611.18001	1443.8701
0.0357	26637.448	539.12885	1234.21
0.0374	22371.913	469.59024	977.95656
0.0391	19078.31	422.24869	827.97477
0.0408	15960.329	375.89918	685.09576
0.0425	13696.114	339.51647	623.05226
0.0442	11731.676	309.7662	536.11254
0.0459	9911.2398	278.5572	443.19545
0.0476	8537.0253	252.16506	378.70397
0.0493	7489.6619	233.63881	358.3686
0.051	6421.2196	212.25651	325.94592
0.0527	5470.501	196.16327	297.12182
0.0544	4254.45	168.2179	225.15461
0.0561	3760.0699	157.49918	195.64268
0.0578	3353.5183	148.49697	175.94619
0.0595	2903.8571	137.00954	152.84433
0.0612	2665.667	131.53006	138.31658
0.0629	2659.6578	127.3987	134.3704
0.0646	2572.1701	126.01063	147.11011
0.0663	2692.0292	127.46684	137.94606
0.068	2620.3457	121.96325	137.34869
0.0697	2662.4846	123.45746	146.25546
0.0714	2854.5632	124.27093	136.42174
0.0731	3234.5192	129.24479	147.01053
0.0748	3517.9963	132.2912	154.33845
0.0765	3501.1414	128.72242	152.02902
0.0782	3740.9598	132.35031	155.1493
0.0799	3777.0744	131.00512	153.86966
0.0816	3853.8432	129.62127	145.16861
0.0833	4197.7753	134.12893	151.24342
0.085	4163.7927	131.77473	155.2301
0.0867	4197.6656	131.36927	151.46392
0.0884	4169.6784	130.37515	152.06753
0.0901	3907.4288	124.33103	143.18595
0.0918	3968.823	124.11855	135.26237
0.0935	3677.8251	119.05357	129.32332
0.0952	3572.7478	116.91319	133.16976
0.0969	3530.0812	114.33776	126.81478
0.0986	3265.9597	110.24675	124.22289
0.1003	3102.9975	107.21112	115.82909
0.102	2998.4267	105.31869	118.19654
0.1037	2810.3519	102.01217	117.16436
0.1054	2505.6742	96.019566	103.18365
0.1071	2308.0295	93.755961	103.11026
0.1088	2147.9884	90.906324	102.97824
0.1105	1932.5419	86.972933	95.426013
0.1122	1750.3386	84.924364	92.613364
0.1139	1579.5989	80.767484	79.774335
0.1156	1471.3491	78.940166	76.324488
0.1173	1200.8852	74.413598	68.945668
0.119	1140.6903	73.662041	67.78587
0.1207	1014.0864	72.094527	63.924598
0.1224	959.81178	70.993682	60.776748
0.1241	974.53235	70.78483	62.895164
0.1258	904.2464	68.734495	57.818699
0.1275	920.51023	68.715337	57.314429
0.1292	977.03394	68.847636	57.671618
0.1309	934.59656	67.987918	57.851859
0.1326	955.92215	67.568691	58.67704
0.1343	1030.1685	68.371872	59.904254
0.136	993.91374	67.674214	57.58679
0.1377	1054.2755	68.846041	60.03627
0.1394	1109.4164	70.14563	63.603491
0.1411	1178.2621	70.698893	65.279166
0.1428	1174.7161	71.330911	66.64396
0.1445	1210.4422	71.212783	64.864897
0.1462	1238.8102	71.74541	67.354718
0.1479	1255.2434	71.590656	66.5077
0.1496	1218.4275	71.525097	65.07171
0.1513	1200.1124	71.426911	66.316654
0.153	1222.4041	70.711417	64.385142
0.1547	1266.3245	71.550699	64.198049
0.1564	1211.0055	70.737624	63.843538
0.1581	1213.6454	70.394004	64.031356
0.1598	1194.5186	70.160732	64.057918
0.1615	1192.3192	70.131023	64.074128
0.1632	1196.5774	69.864636	62.873265
0.1649	1251.2455	70.079997	62.91071
0.1666	1135.5707	67.499785	60.146965
0.1683	1058.7327	65.924299	56.49421
0.17	897.87137	63.650239	54.602179
0.1717	940.49571	62.999432	52.021948
0.1734	884.81749	61.826046	50.332471
0.1751	864.72035	61.746309	51.409654
0.1768	801.53783	60.643115	49.204027
0.1785	773.98475	59.979189	48.182339
0.1802	718.66095	58.529442	44.304536
0.1819	729.82986	58.472845	44.09306
0.1836	760.91426	58.643555	45.82562
0.1853	647.77836	56.810082	40.493787
0.187	624.14848	56.457415	40.071708
0.1887	676.19106	56.59711	42.371236
0.1904	654.52495	56.076885	41.710252
0.1921	648.24313	55.607375	40.055021
0.1938	666.76851	55.535122	39.441223
0.1955	667.6494	56.156028	40.560517
0.1972	677.30963	56.731841	41.113518
0.1989	647.22291	56.592869	41.908487
0.2006	701.89594	57.284794	43.832735
0.2023	573.85257	55.831559	38.924862
0.204	643.06954	56.697979	40.643974
0.2057	772.59139	57.695458	44.009787
0.2074	753.06689	57.523064	44.498818
0.2091	696.63563	56.849995	42.350249
0.2108	751.79269	57.681076	45.027112
0.2125	769.39828	57.495017	44.398722
0.2142	703.58514	56.643363	42.062564
0.2159	712.67349	56.808567	42.282577
0.2176	739.52513	56.941735	42.99799
0.2193	734.98891	57.17722	43.888822
0.221	660.2405	56.160424	42.068704
0.2227	689.16307	56.079534	42.056121
0.2244	711.22911	55.292877	41.143349
0.2261	742.44066	55.009193	41.412666
0.2278	721.819	54.491003	40.749328
0.2295	613.97874	52.745462	37.486977
0.2312	627.46353	52.925662	38.134659
0.2329	646.50871	52.927313	39.474919
0.2346	564.13548	51.712544	36.295981
0.2363	590.24797	51.291023	36.024806
0.238	629.13683	51.410504	36.311371
0.2397	610.51179	50.951086	36.026926
0.2414	562.18963	50.356905	35.248268
0.2431	559.27635	49.978533	33.84103
0.2448	542.95973	49.767331	33.218666
0.2465	549.21016	49.583548	33.346772
0.2482	545.16342	49.15865	33.418113
0.2499	545.01771	48.979488	33.122241
0.2516	518.75733	48.800903	33.113759
0.2533	526.80797	48.44265	32.390459
0.255	524.42762	48.199869	31.84908
0.2567	512.39336	47.953604	31.754584
0.2584	564.56266	48.06737	32.94779
0.2601	539.43302	47.633823	32.241609
0.2618	542.75616	47.562018	32.133511
0.2635	540.48781	47.534137	32.856667
0.2652	517.58048	46.777633	31.19623
0.2669	582.65075	47.340065	32.811515
0.2686	545.42332	46.643194	31.648004
0.2703	546.05542	46.639677	32.469834
0.272	557.65459	46.503761	32.250793
0.2737	606.79493	46.750971	33.060244
0.2754	507.1415	45.732299	30.08344
0.2771	529.80188	45.538482	29.533443
0.2788	547.89524	45.627366	30.810102
0.2805	505.72012	45.342456	30.246199
0.2822	522.49181	45.269959	29.934529
0.2839	488.88681	44.706315	29.10307
0.2856	545.23577	45.176058	30.844459
0.2873	511.46789	44.544199	29.202838
0.289	487.82345	44.256126	28.469818
0.2907	497.68461	44.11448	28.324997
0.2924	492.58136	44.067352	28.663777
0.2941	537.36003	44.277512	29.645225
0.2958	550.70183	44.161438	30.346316
0.2975	523.23894	43.885974	29.912452
0.2992	465.41946	43.203196	27.616504
0.3009	540.96181	43.591565	28.978752
0.3026	524.07533	43.291139	28.116137
0.3043	501.03051	43.05763	27.855699
0.306	483.98163	42.809929	27.654418
0.3077	455.45332	42.577577	27.622965
0.3094	481.79172	42.700892	27.963755
0.3111	436.27816	42.043044	26.245696
0.3128	488.6369	42.239665	27.182588
0.3145	502.2816	42.491711	28.244713
0.3162	443.75899	41.882775	26.509266
0.3179	464.73672	41.836042	26.611478
0.3196	464.78236	41.533584	26.102387
0.3213	475.54312	41.710462	27.310067
0.323	484.45896	41.623946	27.400032
0.3247	497.84864	41.703842	28.198407
0.3264	509.85228	41.460005	27.647423
0.3281	476.07599	41.005859	26.296849
0.3298	501.82138	41.202258	27.274827
0.3315	465.21813	40.828519	26.175708
0.3332	473.73346	40.677489	26.045309
0.3349	474.5764	40.600829	26.080026
0.3366	468.84323	40.466786	25.678452
0.3383	487.96629	40.322542	25.637615
0.34	475.00204	40.100457	25.098253
0.3417	455.44602	40.005484	24.755577
0.3434	437.94248	39.898368	24.719942
0.3451	470.82481	39.998347	26.223634
0.3468	485.77894	39.935038	26.400423
0.3485	443.76372	39.614382	25.0888
0.3502	450.45274	39.542757	25.104824
0.3519	467.96299	39.570449	25.834422
0.3536	437.65568	39.079723	24.49936
0.3553	461.8313	39.222754	24.43662
0.357	447.67951	38.988596	24.232264
0.3587	459.19539	39.016063	24.887866
0.3604	421.59507	38.666543	24.0213
0.3621	409.17696	38.427719	22.916892
0.3638	434.10048	38.652291	24.022805
0.3655	447.43315	38.501457	23.880453
0.3672	429.35067	38.244434	23.374111
0.3689	438.17643	38.350264	24.141933
0.3706	452.54086	38.221877	24.101998
0.3723	473.02578	38.43827	25.769479
0.374	469.49564	38.03703	24.462386
0.3757	458.81774	37.950772	23.546547
0.3774	433.46119	37.669826	22.613108
0.3791	474.30882	37.930044	24.400204
0.3808	493.80831	37.850155	24.856368
0.3825	477.5195	37.607695	23.830171
0.3842	442.55471	37.438419	23.180499
0.3859	412.84438	37.0858	22.294428
0.3876	444.52832	37.243077	23.209352
0.3893	452.43958	37.324717	23.844722
0.391	427.04405	36.948295	22.688011
0.3927	448.10125	37.061477	23.385305
0.3944	466.46795	37.009971	24.041969
0.3961	516.6766	37.287722	24.929648
0.3978	435.58662	36.653613	22.713646
0.3995	457.45698	36.776101	23.135503
0.4012	468.72025	36.619205	23.098762
0.4029	442.00172	36.360431	22.259435
0.4046	408.87657	36.228945	21.683292
0.4063	423.51456	36.283683	22.618278
0.408	446.67632	36.236392	22.629039
0.4097	441.12636	36.135564	22.581994
0.4114	428.73292	36.080316	22.562215
0.4131	429.28668	36.00151	22.420157
0.4148	433.39301	35.845796	22.365738
0.4165	422.50983	35.694515	22.019039
0.4182	451.00307	35.798468	22.166153
0.4199	454.38558	35.745104	22.54944
0.4216	444.33039	35.603824	22.138409
0.4233	421.66934	35.366477	21.447676
0.425	404.16763	35.166188	20.906704
0.4267	442.28813	35.374919	22.173813
0.4284	454.36211	35.341892	22.397557
0.4301	425.68346	35.103814	21.456747
0.4318	434.21669	35.126644	21.400202
0.4335	457.06003	35.212156	22.091048
0.4352	433.15241	34.917965	21.704981
0.4369	427.75193	34.873878	21.486013
0.4386	447.30225	34.924696	21.867703
0.4403	436.90024	34.797318	21.827119
0.442	433.40454	34.632582	21.377834
0.4437	440.37825	34.638098	21.606994
0.4454	413.52897	34.466033	20.943205
0.4471	415.41616	34.409012	20.792764
0.4488	387.13477	34.044257	19.670229
0.4505	418.65244	34.346711	21.411852
0.4522	410.69785	34.198168	21.062612
0.4539	419.15879	34.160002	21.038059
0.4556	450.92699	34.165111	21.158116
0.4573	421.13937	33.920347	20.663566
0.459	434.4025	34.114038	21.535842
0.4607	440.14832	33.931581	21.010751
0.4624	430.54212	33.862243	21.088257
0.4641	396.31208	33.614268	20.247126
0.4658	420.85429	33.82731	20.92594
0.4675	415.82761	33.577085	20.524255
0.4692	454.47469	33.674089	21.084188
0.4709	425.2478	33.439521	20.486447
0.4726	426.70284	33.442207	20.320079
0.4743	431.64798	33.40577	20.516635
0.476	434.59879	33.367593	20.460597
0.4777	403.39224	33.175505	19.936576
0.4794	420.21015	33.08787	19.984998
0.4811	449.47925	33.21397	20.658832
0.4828	407.83407	32.887281	19.527947
0.4845	415.45532	32.912387	19.700947
0.4862	407.81634	32.901412	19.866615
0.4879	401.95336	32.760781	19.456629
0.4896	417.66172	32.66091	19.399883
0.4913	423.29296	32.70662	19.993963
0.493	413.79531	32.734312	20.22354
0.4947	390.16946	32.629025	19.38834
0.4964	426.8538	32.993828	19.743006
0.4981	424.17468	33.07781	19.845486
0.4998	439.14814	33.317126	20.654303
0.5015	413.05096	33.254892	20.157804
0.5032	427.2709	33.380039	20.479995
0.5049	440.77874	33.476205	20.53239
0.5066	417.09576	33.360245	19.957628
0.5083	414.27261	33.387432	20.287636
0.51	447.91417	33.699975	21.360426
0.5117	416.97952	33.435173	20.386131
0.5134	401.04321	33.383759	19.857379
0.5151	417.24834	33.607607	20.701527
0.5168	427.84112	33.555555	20.370881
0.5185	417.30122	33.4784	20.157263
0.5202	429.92872	33.616743	20.575291
0.5219	406.9157	33.491636	19.887277
0.5236	400.33228	33.234363	19.575325
0.5253	415.31021	33.12127	20.254541
0.527	452.16585	33.124543	21.089061
0.5287	445.10708	32.995102	21.009647
0.5304	446.71572	32.770531	20.61033
0.5321	429.56165	32.584634	20.338467
0.5338	416.47399	32.455261	19.942673
0.5355	414.01475	32.305254	19.651442
0.5372	386.36919	32.121645	19.154363
0.53889997	406.86168	32.10751	19.576686
0.5406	406.86904	31.968598	19.439645
0.54230003	428.96386	32.115379	19.860721
0.544	409.80147	31.845017	19.218557
0.54569997	391.17498	31.712651	18.80691
0.5474	382.32653	31.513037	18.225317
0.54910003	416.73694	31.715141	19.153632
0.5508	426.8836	31.67208	19.411607
0.55249997	397.95754	31.466936	18.780097
0.5542	404.02745	31.76996	19.178459
0.55590003	406.8492	31.882547	19.036453
0.5576	391.57878	31.895451	18.906301
0.55929997	398.45219	31.93976	18.937614
0.561	417.21734	32.183764	19.612932
0.56270003	407.28161	32.269213	20.017863
0.5644	408.43222	32.135217	19.483618
0.56609997	415.27781	32.17093	19.224719
0.5678	405.08777	32.153722	19.468846
0.56950003	395.44927	32.166486	19.215005
0.5712	388.39026	32.132314	18.845358
0.57289997	408.84571	32.131604	19.089043
0.5746	413.18777	32.246456	19.35816
0.57630003	419.26595	32.316455	19.634498
0.578	393.63431	32.110292	18.852579
0.57969997	382.35714	32.226751	19.470254
0.5814	411.58817	32.256977	19.925079
0.58310003	425.82233	32.069389	20.017078
0.5848	412.85026	31.706732	19.226267
0.58649997	405.79007	31.456463	18.711376
0.5882	408.30579	31.375987	18.831049
0.58990003	451.05121	31.512409	19.546535
0.5916	431.42263	31.220166	18.881618
0.59329997	403.29717	31.047377	18.396514
0.595	395.33226	30.873003	17.892208
0.59670003	423.24171	30.959344	18.76426
0.5984	411.12609	30.862223	18.701679
0.60009997	397.662	30.703038	18.199045
0.6018	391.94286	30.582235	17.86484
0.60350003	384.5806	30.511329	17.847943
0.6052	398.97288	30.533166	18.215256
0.60689997	379.69256	30.355659	17.776477
0.6086	386.48242	30.248165	17.41442
0.61030003	398.06662	30.280379	17.710691
0.612	392.941	30.207746	17.768926
0.61369997	392.20058	30.127502	17.853996
0.6154	401.01067	30.132199	18.148999
0.61710003	392.20247	29.988006	17.823982
0.6188	396.72702	30.03115	18.187682
0.62049997	394.3372	29.855014	17.478952
0.6222	391.42927	29.813383	17.529619
0.62390003	411.45982	29.910971	18.093057
0.6256	415.68082	29.863475	17.996045
0.62729997	405.82973	29.726091	17.384111
0.629	418.04986	29.744095	18.126157
0.63070003	410.44188	29.676101	18.347282
0.6324	391.32784	29.506292	17.440042
0.63409997	390.05727	29.410599	17.093945
0.6358	384.92887	29.384183	17.344454
0.63750003	372.68161	29.311683	17.13048
0.6392	383.12355	29.358905	17.237505
0.64089997	379.33992	29.176961	16.958943
0.6426	395.26943	29.241578	17.427971
0.64430003	380.82709	29.063362	17.067095
0.646	402.43723	29.081841	16.978181
0.64769997	416.89916	29.175329	17.883674
0.6494	423.95495	29.139972	17.805593
0.65110003	390.83443	28.96524	17.044532
0.6528	395.6156	28.972562	17.426848
0.65449997	435.26977	29.045127	17.941292
0.6562	425.48973	28.861196	17.273142
0.65790003	403.07699	28.82147	17.070904
0.6596	399.3681	28.767156	16.94893
0.66129997	407.40438	28.75604	17.254356
0.663	390.11014	28.582426	16.861643
0.66470003	364.25909	28.434307	16.371469
0.6664	386.92322	28.517384	16.638021
0.66809997	395.54922	28.504343	16.912419
0.6698	407.9715	28.515482	17.089425
0.67150003	401.98203	28.441088	16.922534
0.6732	393.91416	28.366883	16.924184
0.67489997	405.64573	28.386341	16.982021
0.6766	402.52816	28.297862	17.029109
0.67830003	399.0556	28.27643	16.970294
0.68	408.90931	28.275872	16.911889
0.68169997	396.43969	28.193058	16.743565
0.6834	392.32727	28.070878	16.570977
0.68510003	369.25802	27.919889	16.030756
0.6868	366.25317	27.953705	16.047885
0.68849997	393.29742	27.993326	16.592213
0.6902	409.38336	27.983095	16.911636
0.69190003	432.54672	28.097758	17.390598
0.6936	400.24389	27.901726	16.75727
0.69529997	416.29617	27.931011	16.969799
0.697	398.35945	27.791269	16.795043
0.69870003	380.38815	27.68978	16.335138
0.7004	400.59771	27.756113	16.55291
0.70209997	402.25984	27.699106	16.748605
0.7038	392.2968	27.598226	16.543469
0.70550003	396.61708	27.566518	16.178712
0.7072	394.27304	27.570804	16.093075
0.70889997	411.83569	27.614834	16.766754
0.7106	428.69143	27.589596	17.002586
0.71230003	412.15804	27.498891	16.588652
0.714	414.06041	27.481472	16.529669
0.71569997	412.06852	27.451944	16.460573
0.7174	394.31938	27.288656	16.057043
0.71910003	378.07556	27.19329	15.850566
0.7208	379.87394	27.20895	15.995851
0.72249997	383.55001	27.194631	16.055617
0.7242	395.86988	27.256884	16.400541
0.72590003	392.87539	27.096971	15.995533
0.7276	404.43226	27.147989	16.21533
0.72929997	371.82309	26.92051	15.360001
0.731	376.04938	26.916134	15.362644
0.73270003	365.5491	26.806305	15.288758
0.7344	387.09159	26.936673	15.859144
0.73609997	373.98868	26.874245	15.620322
0.7378	381.59662	26.802372	15.558998
0.73950003	377.34521	26.762971	15.568627
0.7412	396.28985	26.80344	15.758455
0.74289997	387.50092	26.754955	15.738814
0.7446	390.00174	26.728016	15.725795
0.74630003	370.91784	26.552495	15.391388
0.748	403.23454	26.780604	16.23339
0.74969997	383.77312	26.631299	15.786804
0.7514	400.42012	26.602752	15.876156
0.75310003	392.2541	26.527893	15.684061
0.7548	387.32923	26.535505	15.535074
0.75649997	386.14816	26.513888	15.707069
0.7582	408.92495	26.490067	15.831699
0.75990003	387.20428	26.40474	15.560049
0.7616	379.21582	26.354343	15.423772
0.76329997	384.7133	26.343958	15.408787
0.765	407.25262	26.404144	15.74536
0.76670003	380.46611	26.218231	15.197601
0.7684	380.32411	26.223303	15.147754
0.77009997	386.28748	26.264651	15.635945
0.7718	396.07561	26.248889	15.843586
0.77350003	407.74943	26.251732	16.07311
0.7752	384.08743	26.109517	15.311858
0.77689997	358.10057	26.013466	14.699006
0.7786	361.37442	25.970789	14.878958
0.78030003	392.44325	26.055078	15.44515
0.782	402.70386	26.013717	15.329439
0.78369997	394.72977	25.970808	15.138898
0.7854	389.9319	25.942927	15.08675
0.78710003	391.54947	25.874705	15.231121
0.7888	421.7945	25.98521	15.741392
0.79049997	393.5346	25.879847	15.354941
0.7922	372.84635	25.777004	15.070891
0.79390003	375.82063	25.744895	15.004809
0.7956	376.1347	25.729398	15.065299
0.79729997	384.64813	25.734154	15.111285
0.799	371.23588	25.596479	14.62343
0.80070003	367.1453	25.563591	14.685097
0.8024	386.63093	25.610959	15.033047
0.80409997	417.64558	25.780669	15.846631
0.8058	406.19972	25.61058	15.245507
0.80750003	386.35776	25.517972	14.754735
0.8092	380.48175	25.48123	14.702839
0.81089997	389.93678	25.498326	14.83867
0.8126	380.75383	25.446209	14.973618
0.81430003	385.5243	25.410056	14.925047
0.816	384.42993	25.335689	14.591577
0.81769997	393.20111	25.539499	15.083759
0.8194	389.88594	25.701587	15.160853
0.82110003	399.4693	25.820912	15.306337
0.8228	370.51812	25.754535	15.1231
0.82449997	387.55834	25.878301	15.440777
0.8262	376.56022	25.860247	15.053036
0.82790003	386.52243	25.946154	15.286619
0.8296	399.65697	25.996104	15.576315
0.83129997	385.75464	25.982576	15.30605
0.833	364.22581	25.887609	14.891063
0.83470003	384.85312	25.903345	15.08141
0.8364	385.62901	25.957987	15.256162
0.83809997	367.00223	25.936876	15.066362
0.8398	375.45797	25.977578	14.985086
0.84150003	384.80252	25.934831	14.994741
0.8432	380.74298	26.086382	15.263603
0.84489997	383.55758	26.366892	15.601595
0.8466	379.3646	26.408507	15.458991
0.84830003	372.11955	26.428319	15.196232
0.85	390.31593	26.629977	15.764482
0.85169997	398.16817	26.779385	15.85429
0.8534	375.53064	26.853431	15.565842
0.85510003	386.21708	27.104775	15.934873
0.8568	386.93935	27.243706	16.012017
0.85849997	404.68057	27.612802	16.599458
0.8602	375.70076	27.591691	16.074035
0.86190003	381.94995	27.710218	16.093646
0.8636	392.00159	27.942386	16.633244
0.86529997	376.11189	27.983686	16.434599
0.867	377.26412	28.056419	16.217894
0.86870003	380.65455	28.109687	16.271374
0.8704	404.79941	28.380517	16.967837
0.87209997	368.47217	28.311385	16.131971
0.8738	392.49792	28.574034	16.916573
0.87550003	383.17961	28.528225	16.668935
0.8772	386.64473	28.725393	17.035289
0.87889997	374.19695	28.818378	17.086461
0.8806	364.27162	28.817085	16.537472
0.88230003	388.82338	29.011565	17.069101
0.884	386.93584	29.092372	17.018537
0.88569997	375.18175	29.186169	16.898331
0.8874	393.75374	29.271559	17.19063
0.88910003	387.32616	29.405623	17.464251
0.8908	378.33537	29.395125	17.142143
0.89249997	374.68297	29.444475	16.85308
0.8942	378.92193	29.625272	17.09538
0.89590003	397.79159	29.704357	17.283663
0.8976	365.11336	29.718157	17.125875
0.89929997	353.39166	29.77264	17.027575
0.901	371.98785	29.942371	17.069049
0.90270003	354.35587	29.882418	16.907495
0.9044	358.21684	30.006441	17.329324
0.90609997	381.70636	30.186579	17.713934
0.9078	418.17236	30.380086	18.087687
0.90950003	399.0298	30.362678	17.606664
0.9112	382.955	30.491823	17.73554
0.91289997	385.21947	30.871634	18.316228
0.9146	388.21016	31.306878	18.82038
0.91630003	373.86127	31.462562	17.944439
0.918	369.55705	31.717782	18.195492
0.91969997	387.10589	32.000579	18.812548
0.9214	370.74725	32.187377	18.815315
0.92310003	368.63776	32.272534	18.55298
0.9248	406.48817	32.740725	19.84065
0.92649997	397.03231	32.894448	19.7193
0.9282	393.36628	33.083713	19.494848
0.92990003	396.32313	33.264323	19.563638
0.9316	369.60791	33.200009	18.725839
0.93329997	361.01595	33.392541	18.843689
0.935	394.20885	33.914979	20.592163
0.93670003	384.61352	34.042435	20.324128
0.9384	348.28439	33.910065	18.985174
0.94009997	376.56607	34.279981	19.565873
0.9418	346.12465	34.320899	18.944685
0.94350003	342.95253	34.518632	19.499354
0.9452	368.52897	34.678823	19.525677
0.94689997	385.96578	35.03189	20.180354
0.9486	387.42715	35.312615	20.439408
0.95030003	362.74494	35.269355	19.661848
0.952	375.04778	35.523337	20.658464
0.95369997	374.28085	35.647246	20.284806
0.9554	393.50634	36.075938	21.39642
0.95710003	388.45321	36.119457	21.416426
0.9588	369.23517	36.135524	20.56238
0.96049997	366.51701	36.375545	20.798673
0.9622	368.38563	36.611052	21.015478
0.96390003	355.83143	36.56037	20.681962
0.9656	362.70495	36.750271	20.619471
0.96729997	338.34834	36.879567	20.455931
0.969	350.60065	37.026097	20.964863
0.97070003	364.97247	37.388347	22.245635
0.9724	342.8097	37.279251	20.465721
0.97409997	336.35011	37.532738	20.638101
0.9758	363.23415	37.843719	21.468772
0.97750003	336.52525	37.784895	20.327281
0.9792	343.09697	38.067489	21.249474
0.98089997	351.24011	38.307998	21.639121
0.9826	368.85277	38.630424	22.044907
0.98430003	379.53953	38.610272	21.864662
0.986	361.00647	38.893819	22.519823
0.98769997	342.13175	38.886623	22.102316
0.9894	376.18116	39.16437	22.524628
0.99110003	377.91821	39.263687	22.2281
0.9928	347.2593	39.28886	21.970827
0.99449997	348.0995	39.480977	22.003392
0.9962	387.21028	39.816304	22.998092
0.99790003	371.14695	39.879228	22.96695
0.9996	392.11806	40.133007	23.562475
1.0013	393.39155	40.491914	24.274692
1.003	405.60822	40.814347	24.87058
1.0047	391.55254	40.800335	24.574973
1.0064	378.32636	40.732619	23.241815
1.0081	380.25808	41.013067	23.98181
1.0098	372.51495	41.240361	23.648728
1.0115	364.62361	41.272209	23.283705
1.0132	382.66513	41.666149	24.290135
1.0149	340.93093	41.696575	23.372722
1.0166	353.44031	41.71644	23.043272
1.0183	413.68945	42.26244	24.5715
1.02	390.12087	42.345772	24.938804
1.0217	370.34499	42.486927	24.750952
1.0234	337.32552	42.501925	23.796444
1.0251	350.43958	42.908407	24.141794
1.0268	363.11965	43.187303	24.612215
1.0285	339.15534	43.019731	23.653004
1.0302	366.72306	43.509718	24.908229
1.0319	405.91839	43.906074	25.857181
1.0336	391.49039	44.092377	25.403656
1.0353	380.31155	44.328183	25.377007
1.037	380.52218	44.638263	26.239434
1.0387	406.43332	45.131579	27.039141
1.0404	384.10684	45.231867	26.969576
1.0421	354.1838	45.217327	25.665232
1.0438	394.80386	46.020083	28.820325
1.0455	427.151	46.472234	29.125068
1.0472	397.57017	46.408847	27.610465
1.0489	359.98155	46.390646	26.749925
1.0506	310.91852	46.280523	24.785217
1.0523	353.05022	46.786159	26.466533
1.054	350.20149	47.124035	26.967265
1.0557	369.93537	47.436711	27.123731
1.0574	368.36264	47.883221	27.349547
1.0591	330.27343	47.923396	25.720317
1.0608	341.64275	48.219168	26.904366
1.0625	341.67582	48.372041	26.766104
1.0642	409.27851	49.396262	29.471708
1.0659	365.56589	49.428946	28.325778
1.0676	331.68627	49.353785	26.835872
1.0693	365.49984	50.170953	28.783306
1.071	378.82869	50.933387	31.578925
1.0727	382.00362	50.653371	29.508001
1.0744	391.03747	50.985598	29.125679
1.0761	399.32232	51.652575	31.111099
1.0777999	378.92312	51.923695	30.045347
1.0795	396.6388	52.620045	32.006549
1.0812	345.66414	52.25331	28.924708
1.0829	339.20089	52.672304	28.858749
1.0846001	378.9384	53.281802	31.742164
1.0863	368.27433	53.582904	30.845041
1.088	360.02532	54.088696	31.811465
1.0897	353.09961	54.525453	31.566667
1.0913999	357.25358	55.082129	31.162432
1.0931	352.53066	55.144925	32.290307
1.0948	386.49471	55.821244	32.959039
1.0965	399.20402	56.146423	32.440494
1.0982001	422.83587	57.009196	34.012796
1.0999	391.97064	57.190468	32.647851
1.1016	357.74072	57.484688	32.560917
1.1033	362.10695	58.231527	33.683329
1.1049999	369.35971	58.581771	34.306684
1.1067	354.23402	58.909883	34.138431
1.1084	338.76532	59.288624	33.042297
1.1101	379.44661	60.380987	34.816495
1.1118001	339.10735	60.446889	33.290128
1.1135	309.88551	60.444865	31.310022
1.1152	384.01812	62.329518	37.131864
1.1169	417.20842	62.591997	37.836855
1.1185999	399.7636	63.193655	37.957965
1.1203	357.26164	63.188971	35.55302
1.122	398.00831	64.667186	38.220761
1.1237	351.662	64.952821	36.10393
1.1254001	339.96386	65.24198	37.267175
1.1271	330.60524	65.789243	36.824286
1.1288	325.39243	66.319535	35.970123
1.1305	371.35592	67.810806	38.558544
1.1321999	417.62492	68.795554	41.312274
1.1339	349.4287	69.293854	40.377757
1.1356	321.14294	70.004102	39.013396
1.1373	339.57868	70.590954	40.855132
1.1390001	356.5772	71.491561	40.650606
1.1407	390.71896	72.176237	40.207587
1.1424	377.01568	73.520476	41.840176
1.1441	304.05342	73.938964	40.084505
1.1457999	324.60215	74.947185	40.183804
1.1475	312.54312	75.880605	40.283309
1.1492	340.45476	76.681769	40.839557
1.1509	290.36457	77.628636	39.527392
1.1526001	308.4818	79.06306	41.005006
1.1543	363.92584	81.496107	46.083451
1.156	391.24526	82.820507	47.40101
1.1577	386.44772	83.334353	47.811899
1.1593999	348.59081	84.296868	45.707052
1.1611	393.76875	86.703923	51.930655
1.1628	382.03822	88.346438	53.738866
1.1645	412.15869	89.915119	52.676409
1.1662001	356.42375	91.556363	51.440834
1.1679	350.46393	93.182756	49.962504
1.1696	359.09596	93.823507	50.727811
1.1713	339.08521	96.690234	54.658184
1.1729999	311.86337	98.97916	56.490213
1.1747	323.38002	101.4516	55.617383
1.1764	295.59706	102.79462	54.848096
1.1781	365.42515	106.15536	58.380932
1.1798001	288.06879	107.61435	51.524616
1.1815	328.64597	110.7786	56.789841
1.1832	329.92206	114.98448	65.543699
1.1849	204.63718	114.5867	49.874827
1.1865999	232.33015	118.37493	52.903988
1.1883	374.42921	123.84095	70.243447
1.19	421.17212	126.96179	70.864035
1.1917	325.38779	129.2794	67.279236
1.1934001	269.05553	131.76311	63.835714
1.1951	314.18152	138.1648	79.072044
1.1968	438.89859	146.0028	96.110911
1.1985	465.66786	149.9299	93.570021
1.2001999	521.09348	156.56552	96.477332
1.2019	319.29701	156.12979	84.219362
1.2036	281.2735	159.65811	76.195565
1.2053	402.32983	168.742	96.328157
1.2070001	290.06178	168.2785	95.375055
1.2087	540.78962	188.63945	136.78939
1.2104	327.58724	182.66217	94.232479
1.2121	418.71031	195.09139	125.30375
1.2137999	443.09242	205.2867	129.10443
1.2155	304.78474	208.26924	108.05009
1.2172	246.45865	221.62648	115.47124
1.2189	269.7083	232.8708	108.87874
1.2206001	377.57996	250.69672	131.88829
1.2223	161.36024	266.98797	102.15676
1.224	199.92443	288.04553	121.08045
1.2257	233.62913	308.61385	138.70632
1.2273999	152.26808	324.58001	120.02689
1.2291	108.60933	341.45245	106.75537
1.2308	309.36932	386.51862	195.31508
1.2325	210.68747	411.87576	179.1006
1.2342001	184.86738	448.60822	188.397
1.2359	153.15079	530.85082	202.52884
1.2376	0	619.86938	27.169808
