# HDF: fcm_201403_060  
# /archive/messung/kmc/daten/2014/1Q/pilatus_201403_0954.tif
# Energy (eV)=8800 Distance (mm)=4.5326  Normalization factor =0.00050424578  Center=(499.5,536.2)  Binsize (nm-1)=0.0017
# Normalized by solid angle (1/distance^2), time (PilatusAcqTime_GRAL) and intensity (K4norm_mean)
# Detector quantum efficiency = 95.72% Monitor sensitivity (ph/s/A) = 4.538e+16 Sample thickness (mm) =1 Direct beam(photons * sr) = 0.5268
# q(nm-1)	I_norm	err_pois	err_stdv
0	0	935.5572	0
0.0017	0	494.79956	0
0.0034	0	362.74769	4.9779147
0.0051	51.477667	298.68191	66.890587
0.0068	105.38313	257.23127	82.586089
0.0085	207.95217	232.07436	98.531596
0.0102	179.83702	219.84703	86.834293
0.0119	77.652146	215.21483	58.497754
0.0136	81.520474	208.67972	58.083155
0.0153	76.981366	202.07389	54.699625
0.017	107.48202	197.41058	61.843015
0.0187	87.387303	189.67737	53.986244
0.0204	158.95219	184.45908	69.24078
0.0221	112.67237	170.42514	144.9974
0.0238	2084.9491	246.70903	909.77084
0.0255	17253.05	631.47215	2856.2539
0.0272	47371.224	1041.8967	3663.2578
0.0289	64380.396	1104.864	2083.5237
0.0306	57884.747	897.63213	1474.3472
0.0323	48275.99	755.35788	1194.2702
0.034	42124.718	681.66771	1026.4682
0.0357	38597.502	636.44688	911.33665
0.0374	33607.102	573.46213	857.72707
0.0391	30726.57	539.62484	794.01599
0.0408	26104.763	482.1865	672.45412
0.0425	22542.865	434.50383	547.76123
0.0442	19648.235	397.20114	551.44297
0.0459	16771.953	361.02901	500.81997
0.0476	14060.79	325.19098	434.14197
0.0493	11336.319	286.75122	401.54499
0.051	9241.3905	251.93298	353.11264
0.0527	7935.9673	231.05526	308.88311
0.0544	6424.8466	205.06776	256.15156
0.0561	4723.4338	171.31337	218.77394
0.0578	4234.4951	164.73414	199.26864
0.0595	3128.1985	139.66989	160.40024
0.0612	2727.6321	131.93325	142.13176
0.0629	2381.1126	123.66602	134.96713
0.0646	1890.6695	114.30773	125.67352
0.0663	1765.3969	111.64357	117.6478
0.068	1639.5237	106.8538	101.63012
0.0697	1905.1597	110.65802	117.50977
0.0714	2071.898	109.92187	121.69785
0.0731	2467.8934	117.95873	126.54694
0.0748	2452.4983	112.84497	120.50892
0.0765	2707.0981	117.15574	127.60197
0.0782	2971.2294	119.11588	126.73808
0.0799	3263.9569	123.63495	140.78268
0.0816	3498.4864	125.69005	139.1855
0.0833	3640.2427	125.64993	141.57009
0.085	3753.4936	125.27533	142.29666
0.0867	4176.3389	132.45577	158.42173
0.0884	4360.1471	132.09992	149.59477
0.0901	4281.6189	128.84575	151.85298
0.0918	4407.0151	130.25391	148.047
0.0935	4324.3247	127.87215	136.15387
0.0952	4210.4956	124.92353	147.51079
0.0969	4161.2932	123.60495	151.12822
0.0986	3906.9678	117.54217	133.76372
0.1003	3770.1986	116.76195	133.09669
0.102	3537.7521	112.60733	131.86137
0.1037	3301.1604	107.64852	118.83843
0.1054	2948.4973	101.96914	108.29197
0.1071	2691.6901	98.831025	108.07797
0.1088	2546.8845	95.716132	107.479
0.1105	2459.5606	93.383966	102.32415
0.1122	2105.7007	88.39598	94.892542
0.1139	1915.5291	85.9281	91.274086
0.1156	1620.8362	80.485835	81.677857
0.1173	1563.6827	79.397332	79.882721
0.119	1376.645	76.435316	73.24483
0.1207	1212.0131	74.129532	66.412306
0.1224	1041.9526	72.240496	64.206169
0.1241	951.06807	69.993919	57.896823
0.1258	891.76205	68.378234	54.648978
0.1275	916.74999	68.660324	57.004715
0.1292	872.37823	68.215627	57.127962
0.1309	755.85919	65.951142	51.0805
0.1326	778.3748	66.146432	52.689998
0.1343	906.85589	67.14685	57.37148
0.136	974.72466	67.538945	58.77789
0.1377	933.26313	65.890303	55.014802
0.1394	1030.306	67.497071	58.459127
0.1411	1117.7054	69.145491	62.111331
0.1428	1127.0021	69.075772	62.132874
0.1445	1172.9238	70.139223	62.149082
0.1462	1186.3923	69.900536	61.795644
0.1479	1283.5239	71.068703	66.258424
0.1496	1363.3909	72.749445	70.134399
0.1513	1272.5719	71.13543	66.829822
0.153	1341.3812	72.327178	68.917162
0.1547	1393.2994	73.241875	72.110094
0.1564	1382.8902	72.411688	69.698028
0.1581	1220.3051	69.800756	64.279878
0.1598	1259.0914	70.409803	64.766478
0.1615	1288.7006	70.52444	63.554317
0.1632	1257.6025	70.001617	61.922442
0.1649	1161.0019	69.627216	63.771099
0.1666	1162.3699	68.889118	60.994835
0.1683	1220.6092	68.796859	60.749377
0.17	1063.9195	65.838337	57.092955
0.1717	941.98669	63.401182	51.429037
0.1734	886.0594	62.387082	50.978755
0.1751	846.15078	61.288572	48.962202
0.1768	831.88131	60.990236	48.349553
0.1785	733.22005	59.22395	45.157583
0.1802	769.62913	59.370565	46.450349
0.1819	705.21361	58.344774	44.929845
0.1836	731.1852	58.826173	45.889238
0.1853	693.83296	57.803134	43.700703
0.187	654.76271	56.668324	40.780021
0.1887	676.07931	56.661412	41.83136
0.1904	687.18183	56.849093	42.622229
0.1921	649.95671	56.696841	41.533678
0.1938	592.68719	56.475246	39.430365
0.1955	598.34073	56.961599	41.796338
0.1972	613.30401	57.294532	42.716128
0.1989	642.82437	57.831178	43.345122
0.2006	607.62294	56.530928	39.890883
0.2023	612.09802	56.931017	41.717668
0.204	722.28574	58.163794	45.075123
0.2057	712.34359	57.52394	43.15613
0.2074	713.21163	57.82437	44.275551
0.2091	729.70408	58.250981	45.779761
0.2108	736.60025	58.313593	46.521113
0.2125	691.16204	57.6538	44.989539
0.2142	744.86229	57.695175	44.345998
0.2159	782.85899	58.187176	45.69964
0.2176	792.94647	58.023543	45.791715
0.2193	683.32679	57.062742	44.311442
0.221	696.82149	55.920208	42.13093
0.2227	736.36083	55.370752	41.930782
0.2244	721.81179	54.936033	41.475606
0.2261	681.17752	54.004015	39.589112
0.2278	640.01888	53.280837	38.593186
0.2295	599.2661	52.485598	37.247512
0.2312	646.269	52.894069	39.304343
0.2329	641.53356	52.351044	38.871789
0.2346	590.69117	51.651766	37.591878
0.2363	626.57849	51.447735	37.137333
0.238	562.06942	50.799581	35.292296
0.2397	560.9571	50.462474	34.305575
0.2414	563.82382	50.45615	35.475426
0.2431	581.8429	50.154966	34.777696
0.2448	580.05126	49.817204	34.509757
0.2465	485.60979	48.945246	31.588384
0.2482	493.67291	48.873466	31.400419
0.2499	495.52023	48.540426	31.262673
0.2516	502.57154	48.531749	32.01989
0.2533	494.53008	48.280529	32.130937
0.255	472.36976	47.933204	31.057638
0.2567	482.50462	47.619634	30.354701
0.2584	460.31191	47.279343	29.494818
0.2601	473.28198	46.995254	29.167934
0.2618	499.58496	47.110678	30.786284
0.2635	500.59467	47.130525	31.012439
0.2652	488.98914	46.647412	30.089226
0.2669	526.49132	46.799853	30.950867
0.2686	505.68715	46.40754	30.933337
0.2703	579.05455	46.767834	32.330933
0.272	533.75275	46.394726	31.535366
0.2737	494.42922	45.90169	29.776704
0.2754	522.00258	45.91067	30.994331
0.2771	591.13049	46.168846	33.503421
0.2788	560.39817	45.56469	31.101101
0.2805	518.77144	45.561133	30.874809
0.2822	538.02422	45.658674	32.223577
0.2839	532.86887	45.188323	31.097876
0.2856	508.44163	44.647526	28.830372
0.2873	546.80358	44.918881	30.268106
0.289	542.72934	44.718009	30.633023
0.2907	578.98061	44.805555	31.167244
0.2924	505.42816	44.008747	29.317019
0.2941	513.28865	44.265511	30.080704
0.2958	463.42039	43.587905	28.242798
0.2975	499.92427	43.631172	28.91072
0.2992	502.77911	43.356607	28.483587
0.3009	525.20743	43.522442	28.736087
0.3026	480.27488	43.159469	27.365674
0.3043	460.96745	42.666903	26.337607
0.306	468.94044	42.790513	27.332917
0.3077	435.72492	42.280777	25.498784
0.3094	450.41704	42.258994	25.667264
0.3111	454.65093	42.214726	26.607402
0.3128	436.23397	42.053147	26.475132
0.3145	457.10006	42.035656	26.628831
0.3162	483.89019	41.991724	27.050664
0.3179	469.44267	41.741472	26.420521
0.3196	429.41535	41.277792	25.406879
0.3213	475.5085	41.721521	27.253994
0.323	415.64487	41.125219	24.827931
0.3247	432.05612	41.102911	25.484821
0.3264	470.34576	41.150452	26.409591
0.3281	456.08198	41.014305	26.129636
0.3298	439.6192	40.691733	25.203374
0.3315	465.81083	40.740899	25.891117
0.3332	461.17555	40.662137	25.653473
0.3349	406.86421	40.126795	23.463065
0.3366	462.70049	40.570439	26.158709
0.3383	455.17685	40.150418	25.1038
0.34	408.79504	39.74409	23.44195
0.3417	414.15469	39.825645	24.184091
0.3434	437.16168	39.750296	24.133128
0.3451	416.51685	39.64472	24.314414
0.3468	415.80492	39.457324	24.097793
0.3485	465.68456	39.657815	25.371639
0.3502	462.24738	39.60258	25.584976
0.3519	439.15253	39.352231	25.089294
0.3536	473.95673	39.300151	24.978401
0.3553	440.52043	39.027561	23.911479
0.357	420.01419	38.836032	23.413129
0.3587	451.19794	38.888589	23.936921
0.3604	399.24841	38.527426	23.031016
0.3621	382.02799	38.304188	22.349127
0.3638	415.11484	38.475597	23.36054
0.3655	446.15216	38.55526	23.954255
0.3672	426.09622	38.210732	23.166262
0.3689	401.41556	38.010739	22.539161
0.3706	424.90119	38.056041	23.377216
0.3723	468.57123	38.197083	24.406155
0.374	470.54848	38.133898	24.85038
0.3757	452.99969	38.063078	24.535566
0.3774	440.92942	37.908015	23.942752
0.3791	405.4945	37.430811	22.576673
0.3808	470.77709	37.789898	23.900159
0.3825	434.60939	37.540931	23.81027
0.3842	440.42191	37.387722	23.261798
0.3859	429.83503	37.300704	23.159611
0.3876	428.85872	37.233427	22.747404
0.3893	408.71877	36.902979	22.068655
0.391	372.02877	36.672726	21.249323
0.3927	398.38418	36.822529	21.944081
0.3944	395.38013	36.60413	21.975372
0.3961	426.85623	36.754015	22.697664
0.3978	435.24752	36.750819	22.966324
0.3995	423.07004	36.48844	21.86195
0.4012	409.03053	36.414214	22.520789
0.4029	418.94103	36.417616	23.017836
0.4046	378.42851	36.080808	21.304829
0.4063	407.79721	36.075482	21.63272
0.408	405.04337	36.044985	22.101605
0.4097	421.84011	36.146202	22.479235
0.4114	404.51606	35.890896	21.615911
0.4131	416.0807	35.792782	21.395395
0.4148	433.50904	35.816981	22.260704
0.4165	409.71267	35.660495	21.759895
0.4182	400.10333	35.52522	20.95515
0.4199	402.96384	35.489522	21.110472
0.4216	433.1262	35.575612	22.099156
0.4233	425.66495	35.425768	21.851329
0.425	402.3164	35.19082	20.910228
0.4267	426.56189	35.343789	21.971643
0.4284	408.38889	35.050444	20.886546
0.4301	387.05199	34.901265	20.265906
0.4318	407.2935	34.972225	20.539308
0.4335	409.88297	34.952913	21.220866
0.4352	406.209	34.746441	20.905795
0.4369	426.94308	34.787525	20.932763
0.4386	428.6135	34.737779	21.11409
0.4403	395.03982	34.515959	20.852787
0.442	416.09184	34.576495	21.166907
0.4437	401.75478	34.546907	20.92031
0.4454	361.88759	34.196209	19.519
0.4471	382.67079	34.307947	20.53586
0.4488	402.31968	34.223777	21.026398
0.4505	413.7532	34.147719	20.553857
0.4522	380.49415	34.028982	19.746496
0.4539	354.21047	33.685668	18.424338
0.4556	372.13504	33.736589	19.045753
0.4573	378.27313	33.783568	19.757256
0.459	440.44753	34.091394	21.293524
0.4607	423.20075	33.923498	20.865753
0.4624	408.11211	33.718651	20.434984
0.4641	397.38129	33.522475	19.93641
0.4658	406.67479	33.686729	20.154091
0.4675	370.26488	33.384023	19.205955
0.4692	374.37119	33.425391	19.993359
0.4709	378.58445	33.272965	19.74625
0.4726	397.912	33.270453	19.534387
0.4743	364.4632	33.033425	18.872551
0.476	376.73306	33.180347	19.827064
0.4777	386.17632	33.069696	19.524879
0.4794	402.35576	33.078336	19.767941
0.4811	377.28103	32.827489	18.780578
0.4828	381.88626	32.892114	19.547124
0.4845	397.53581	32.882735	19.821124
0.4862	446.57909	33.122862	20.500954
0.4879	402.0304	32.715548	19.204714
0.4896	400.42993	32.637573	19.117995
0.4913	417.14322	32.704082	19.761403
0.493	420.04617	32.655843	19.669443
0.4947	392.96008	32.442523	19.091669
0.4964	409.87381	32.564788	19.51671
0.4981	383.6427	32.461011	19.082728
0.4998	395.05175	32.728835	19.214499
0.5015	406.73486	32.959122	19.575872
0.5032	396.02417	32.95822	19.569518
0.5049	388.26974	33.017294	19.495191
0.5066	382.08118	32.959199	18.955254
0.5083	369.68024	33.008461	18.765998
0.51	377.16389	33.115685	19.196295
0.5117	408.65819	33.287356	20.195443
0.5134	415.87248	33.321233	20.184662
0.5151	411.49468	33.378744	20.11751
0.5168	382.32781	33.226244	19.447183
0.5185	381.46524	33.175209	19.167424
0.5202	371.28284	33.162808	19.075621
0.5219	398.99731	33.388559	19.894127
0.5236	381.95399	33.278742	19.714453
0.5253	366.83916	33.178951	19.120803
0.527	393.28609	33.139034	19.658662
0.5287	404.46618	32.945011	19.782671
0.5304	430.90672	32.884054	20.219479
0.5321	404.31809	32.486839	19.551747
0.5338	407.50332	32.477512	19.536713
0.5355	381.98531	32.212473	18.722725
0.5372	369.37843	32.054465	18.589362
0.53889997	399.42766	32.117461	19.025472
0.5406	347.23002	31.712493	17.666764
0.54230003	374.35426	31.809115	18.142382
0.544	391.43484	31.825084	18.827381
0.54569997	396.72182	31.752269	18.982966
0.5474	377.21451	31.484467	18.00391
0.54910003	392.70573	31.643213	18.217302
0.5508	407.26336	31.844868	18.568262
0.55249997	406.93375	31.972408	18.867492
0.5542	385.26168	32.041895	18.836662
0.55590003	390.22424	32.13012	19.232596
0.5576	429.52873	32.278727	19.553097
0.55929997	411.78274	32.212044	19.262121
0.561	409.4371	32.399341	19.909719
0.56270003	379.43648	32.272625	18.728515
0.5644	365.65055	32.118791	18.326705
0.56609997	385.56546	32.22501	19.03621
0.5678	370.55629	32.209462	18.571897
0.56950003	357.24584	32.10679	17.728085
0.5712	355.25626	32.114011	17.991103
0.57289997	362.72597	32.126777	18.185333
0.5746	386.49923	32.326645	18.956283
0.57630003	379.76976	32.282369	18.870331
0.578	344.26944	31.956373	17.923373
0.57969997	381.41364	31.85711	18.382155
0.5814	387.52768	31.758722	18.83268
0.58310003	390.65129	31.583143	18.457461
0.5848	389.09878	31.473167	18.767492
0.58649997	392.22469	31.278619	18.439933
0.5882	395.30436	31.182566	18.240868
0.58990003	378.0238	31.112707	18.134512
0.5916	376.71994	30.932142	17.823846
0.59329997	382.51644	30.931777	18.18842
0.595	372.86788	30.788512	17.744404
0.59670003	365.3715	30.671204	17.60335
0.5984	392.19106	30.764399	18.129008
0.60009997	380.66818	30.605664	18.164638
0.6018	407.53337	30.663249	18.500593
0.60350003	366.56035	30.415457	17.66165
0.6052	368.49268	30.349646	17.686451
0.60689997	397.11217	30.429274	18.020462
0.6086	348.91861	30.062935	16.684557
0.61030003	373.33787	30.158227	17.366263
0.612	405.26785	30.301632	18.310749
0.61369997	373.13476	30.103413	17.513259
0.6154	347.034	29.861954	16.63953
0.61710003	381.25882	29.894833	17.010922
0.6188	394.01689	29.924678	17.531047
0.62049997	376.09578	29.834186	17.361583
0.6222	344.25325	29.626734	16.50166
0.62390003	361.46389	29.677193	16.77079
0.6256	357.35873	29.570339	16.808193
0.62729997	389.47174	29.66922	17.38532
0.629	356.6062	29.48048	16.95942
0.63070003	350.3091	29.355905	16.559867
0.6324	384.3184	29.538578	17.547941
0.63409997	365.89562	29.356156	17.023133
0.6358	390.45903	29.386483	17.362983
0.63750003	393.60495	29.301552	17.176924
0.6392	404.91677	29.414712	17.589725
0.64089997	386.47482	29.205333	17.281076
0.6426	389.71542	29.19101	17.323192
0.64430003	373.00583	29.022938	16.737253
0.646	399.64141	29.102418	17.119402
0.64769997	402.43071	29.072564	17.226295
0.6494	381.6479	28.937477	16.886142
0.65110003	367.11648	28.861013	16.382579
0.6528	339.72015	28.675201	15.780713
0.65449997	388.86095	28.863047	17.104176
0.6562	400.887	28.786269	16.954058
0.65790003	401.61922	28.765311	16.924499
0.6596	402.63792	28.846657	17.406023
0.66129997	376.89243	28.613107	16.666152
0.663	376.43893	28.55518	16.836193
0.66470003	369.34722	28.522724	16.756627
0.6664	348.71412	28.46843	16.452654
0.66809997	352.25281	28.3388	16.147727
0.6698	359.66128	28.304396	16.015986
0.67150003	385.84809	28.392766	16.522178
0.6732	388.98766	28.350855	16.603872
0.67489997	362.50259	28.206324	16.069694
0.6766	352.73506	28.095357	16.129044
0.67830003	376.23246	28.235002	16.815174
0.68	365.16331	28.0896	16.02915
0.68169997	363.49853	28.043986	15.984509
0.6834	377.2932	28.031873	16.375228
0.68510003	382.52406	28.049054	16.733127
0.6868	382.54889	28.016773	16.248905
0.68849997	343.74035	27.699727	15.137355
0.6902	379.47924	27.932381	16.225064
0.69190003	356.09833	27.685167	15.431803
0.6936	354.7233	27.728706	15.681151
0.69529997	359.84385	27.632845	15.594098
0.697	390.49688	27.728403	16.101142
0.69870003	362.48202	27.609772	15.57372
0.7004	357.73181	27.561759	15.478815
0.70209997	373.44112	27.569819	15.867578
0.7038	348.92517	27.458514	15.585571
0.70550003	346.73604	27.404782	15.403201
0.7072	376.23461	27.495682	16.054444
0.70889997	399.65621	27.520211	16.344345
0.7106	379.57345	27.425302	16.219108
0.71230003	365.32678	27.319938	15.863701
0.714	364.22091	27.243895	15.532467
0.71569997	375.92935	27.307225	15.759661
0.7174	375.47115	27.220913	15.963049
0.71910003	387.50708	27.240714	16.113233
0.7208	367.46678	27.152023	15.705883
0.72249997	373.50043	27.150509	15.780656
0.7242	359.31798	27.014892	15.153984
0.72590003	372.9456	27.023621	15.360778
0.7276	365.48429	26.971424	15.235248
0.72929997	352.16377	26.940943	15.542154
0.731	387.69565	27.001444	16.019027
0.73270003	372.02133	26.87419	15.582425
0.7344	366.38472	26.908465	15.758487
0.73609997	390.44555	26.943677	15.907422
0.7378	365.89999	26.731206	15.267225
0.73950003	367.20019	26.677402	15.013856
0.7412	371.9569	26.680642	15.235729
0.74289997	385.77478	26.805175	15.915894
0.7446	378.05247	26.691587	15.536652
0.74630003	370.80298	26.594114	15.244245
0.748	365.33136	26.597791	15.211412
0.74969997	379.90392	26.621205	15.69315
0.7514	381.12501	26.500921	15.507086
0.75310003	362.39088	26.496947	15.352132
0.7548	354.00719	26.455953	15.228201
0.75649997	357.18145	26.400306	15.175619
0.7582	364.1155	26.38742	15.333543
0.75990003	356.09307	26.260085	14.859554
0.7616	351.7796	26.216085	14.747659
0.76329997	345.93082	26.184472	14.600624
0.765	353.12466	26.195415	14.720631
0.76670003	363.63319	26.215039	15.06609
0.7684	351.94663	26.090818	14.664911
0.77009997	368.46304	26.151205	15.020204
0.7718	370.4124	26.118098	15.054805
0.77350003	373.03361	26.051762	14.926842
0.7752	372.91715	26.056073	14.838946
0.77689997	360.08992	26.008732	14.985128
0.7786	368.39844	26.00671	15.017789
0.78030003	349.64073	25.855698	14.438662
0.782	363.48541	25.913144	14.966249
0.78369997	366.33747	25.907277	14.862301
0.7854	338.17163	25.7355	14.292976
0.78710003	360.27899	25.825918	14.828149
0.7888	348.32835	25.702541	14.517783
0.79049997	367.46914	25.789799	14.761535
0.7922	344.60249	25.647306	14.396382
0.79390003	342.69149	25.711401	14.729054
0.7956	335.34581	25.580226	14.241216
0.79729997	358.69717	25.610647	14.559517
0.799	360.41591	25.573876	14.447676
0.80070003	348.48843	25.512078	14.344325
0.8024	352.35476	25.518009	14.378818
0.80409997	370.39957	25.568392	14.801847
0.8058	381.21854	25.54802	14.835544
0.80750003	376.28163	25.495249	14.778222
0.8092	387.02317	25.527962	15.009964
0.81089997	362.78569	25.398437	14.416833
0.8126	367.57529	25.368431	14.524492
0.81430003	373.95904	25.47481	14.776055
0.816	357.3313	25.638961	14.547682
0.81769997	353.95568	25.649755	14.305519
0.8194	380.2919	25.888238	15.167852
0.82110003	369.00315	25.883827	14.919576
0.8228	351.72009	25.811853	14.506351
0.82449997	364.37662	25.940393	14.997869
0.8262	339.80169	25.856033	14.573779
0.82790003	343.88906	25.851356	14.426882
0.8296	350.21293	25.834133	14.393452
0.83129997	350.76312	25.914105	14.472429
0.833	356.08542	25.908272	14.564433
0.83470003	367.57845	25.932794	14.80728
0.8364	347.36876	25.857318	14.428052
0.83809997	352.95666	25.924773	14.691662
0.8398	370.52088	26.016151	15.117103
0.84150003	370.33905	25.984252	15.134506
0.8432	365.64035	25.94812	15.039402
0.84489997	357.6129	25.894689	14.588481
0.8466	359.58374	26.049738	14.78126
0.84830003	358.87167	26.226862	14.890252
0.85	378.71377	26.513176	15.571938
0.85169997	372.05295	26.554138	15.120276
0.8534	357.50713	26.566479	14.850937
0.85510003	353.06408	26.573187	14.913711
0.8568	360.67977	26.817862	15.301993
0.85849997	375.83183	27.164093	15.621309
0.8602	375.82255	27.379092	15.884813
0.86190003	341.80181	27.348195	15.376481
0.8636	357.82499	27.564834	15.725251
0.86529997	363.3464	27.758095	15.918709
0.867	363.67058	27.86553	15.930345
0.86870003	353.56182	27.874629	15.481212
0.8704	377.18262	28.15417	16.512913
0.87209997	367.60726	28.218616	16.287506
0.8738	368.89656	28.311873	16.314745
0.87550003	364.90083	28.354233	16.441755
0.8772	389.5726	28.61323	16.818755
0.87889997	373.09132	28.548864	16.248561
0.8806	360.18269	28.655241	16.265273
0.88230003	346.50861	28.744379	16.189021
0.884	328.24172	28.709601	15.595816
0.88569997	325.52819	28.821882	15.521734
0.8874	364.58844	29.127495	16.662041
0.88910003	372.36377	29.123893	16.479505
0.8908	368.64771	29.208284	16.698692
0.89249997	384.45545	29.479505	17.289568
0.8942	368.85023	29.383266	16.595123
0.89590003	366.80226	29.486904	16.642217
0.8976	364.02966	29.591627	16.87477
0.89929997	368.35196	29.69659	17.018645
0.901	349.93468	29.683811	16.368954
0.90270003	341.21472	29.719352	16.374192
0.9044	360.05378	29.898139	16.946186
0.90609997	377.56635	30.094905	17.594701
0.9078	359.38175	30.253367	17.408523
0.90950003	313.50403	30.299338	16.184012
0.9112	305.81455	30.619356	16.319642
0.91289997	329.23801	30.986775	16.73181
0.9146	363.54419	31.304444	17.443747
0.91630003	353.96564	31.559295	17.627438
0.918	349.85811	31.775205	17.74897
0.91969997	367.60121	31.999367	18.042159
0.9214	361.98198	32.153536	17.886059
0.92310003	319.4391	32.122016	17.266854
0.9248	343.86808	32.546389	18.294238
0.92649997	357.12589	32.770765	18.608699
0.9282	364.64961	33.090973	19.201816
0.92990003	363.49874	33.169901	18.91931
0.9316	344.57471	33.261274	18.886891
0.93329997	365.30509	33.541834	19.237721
0.935	363.46901	33.764792	19.540397
0.93670003	345.31775	33.839047	18.807639
0.9384	315.56464	33.917447	18.639505
0.94009997	318.61485	34.066667	18.426083
0.9418	348.4535	34.403734	19.102015
0.94350003	361.11692	34.553652	19.56388
0.9452	352.75503	34.764582	20.117571
0.94689997	345.79036	34.936726	19.633584
0.9486	352.86659	35.206471	19.706103
0.95030003	360.36469	35.485241	20.559669
0.952	349.99428	35.353589	19.719037
0.95369997	368.67431	35.751469	20.177111
0.9554	368.31292	35.892957	20.152377
0.95710003	373.69293	35.987418	20.511624
0.9588	350.95704	36.050186	20.154815
0.96049997	345.3684	36.324474	20.597655
0.9622	353.88605	36.651139	21.298902
0.96390003	354.9028	36.603801	20.898199
0.9656	359.71805	36.768232	20.955519
0.96729997	363.70137	37.002265	20.984592
0.969	359.55419	37.100383	20.808298
0.97070003	364.96744	37.272516	21.118947
0.9724	380.76059	37.569086	21.488199
0.97409997	350.64885	37.670277	21.127033
0.9758	329.63687	37.71207	20.753779
0.97750003	343.52758	37.944529	21.058685
0.9792	348.17058	38.108986	21.048236
0.98089997	334.55008	38.388901	21.334822
0.9826	331.43776	38.637657	21.929699
0.98430003	359.05888	38.740913	22.601034
0.986	373.90543	38.907158	22.427512
0.98769997	331.03592	38.72302	20.962776
0.9894	375.5851	39.223827	22.317934
0.99110003	363.26017	39.287451	22.631812
0.9928	367.73227	39.492741	23.192585
0.99449997	345.18855	39.508665	22.597894
0.9962	356.54426	39.615553	22.555132
0.99790003	363.72962	39.789359	22.776076
0.9996	366.58632	40.100181	23.390769
1.0013	330.40724	39.989315	21.716833
1.003	356.79329	40.324516	22.207269
1.0047	381.93658	40.769974	23.824912
1.0064	344.36723	40.74494	22.780564
1.0081	350.05484	40.798425	22.630327
1.0098	389.40209	41.469596	24.841362
1.0115	380.28215	41.498626	24.338214
1.0132	373.96808	41.574355	23.595457
1.0149	371.39664	41.834009	23.697522
1.0166	347.25366	41.831353	23.528608
1.0183	345.34269	41.995137	23.216364
1.02	326.83011	42.004468	22.758938
1.0217	337.53057	42.18878	23.128611
1.0234	370.74284	42.731728	24.726582
1.0251	336.95946	42.702051	23.082838
1.0268	348.29806	43.106639	24.124401
1.0285	356.15046	43.144738	24.011261
1.0302	347.18545	43.369883	23.901768
1.0319	323.70085	43.467188	23.740238
1.0336	325.21512	43.946275	24.572045
1.0353	341.36498	44.27861	25.284716
1.037	328.11349	44.305871	24.344125
1.0387	332.7845	44.701032	24.473142
1.0404	352.73987	44.953383	25.515569
1.0421	354.78164	45.506304	26.961378
1.0438	321.31626	45.37531	25.332349
1.0455	289.66631	45.638051	24.310563
1.0472	309.99232	45.744458	23.589371
1.0489	355.08874	46.165285	25.437853
1.0506	343.50787	46.495788	25.65655
1.0523	384.31999	47.05347	27.572399
1.054	404.35158	47.564646	28.419828
1.0557	347.3703	47.395941	26.874593
1.0574	332.81343	47.839722	26.633216
1.0591	294.98021	47.64565	24.001244
1.0608	337.44854	48.098651	25.95715
1.0625	328.90967	48.492154	26.307546
1.0642	320.99211	48.762977	26.500432
1.0659	328.69415	49.174303	26.605241
1.0676	344.29598	49.708308	27.920378
1.0693	335.80383	49.878874	27.870041
1.071	356.49523	50.559535	29.360134
1.0727	352.68485	50.643325	28.42164
1.0744	305.86745	50.463837	26.50106
1.0761	341.81127	51.249069	28.384903
1.0777999	308.83381	51.678768	27.619122
1.0795	293.82809	51.556071	26.252826
1.0812	333.75494	52.202142	29.32518
1.0829	359.47859	52.831483	29.565047
1.0846001	326.3256	52.863295	28.942568
1.0863	356.63637	53.535954	29.761987
1.088	342.22372	53.940941	30.128668
1.0897	312.31231	54.092344	28.491353
1.0913999	319.18889	54.798371	29.871863
1.0931	346.50923	55.018551	31.357366
1.0948	345.82547	55.697697	32.471609
1.0965	329.44236	55.81703	30.403874
1.0982001	311.11973	56.101643	29.223917
1.0999	339.0666	57.053485	32.373336
1.1016	350.85207	57.614094	33.457365
1.1033	331.75278	57.90823	31.55204
1.1049999	302.70808	57.755564	29.928788
1.1067	337.25923	58.938812	32.987975
1.1084	367.6927	59.757105	35.185989
1.1101	336.01935	60.04249	33.76846
1.1118001	336.82568	60.329692	32.27879
1.1135	361.2184	61.022414	33.94233
1.1152	355.86739	61.690475	33.981478
1.1169	349.22477	62.035915	34.663188
1.1185999	337.06996	62.58105	34.378109
1.1203	306.43268	63.094136	33.440351
1.122	303.94572	63.650987	32.317225
1.1237	371.54534	65.237682	37.003916
1.1254001	331.61052	64.871866	35.892322
1.1271	384.71633	66.248089	37.602594
1.1288	310.34652	66.299205	35.465692
1.1305	315.24564	67.258332	35.519151
1.1321999	292.20138	67.865953	35.831945
1.1339	275.45094	68.357474	34.157907
1.1356	307.45229	69.818199	37.014894
1.1373	308.97235	69.880109	36.848029
1.1390001	319.28638	71.032539	37.827155
1.1407	276.4559	71.662745	35.779384
1.1424	261.86475	72.262224	34.000117
1.1441	306.68094	73.667976	38.026113
1.1457999	317.35203	74.788934	39.680455
1.1475	328.49692	76.148335	40.636808
1.1492	289.97666	75.966121	37.967867
1.1509	365.48202	78.400815	43.862386
1.1526001	333.32349	79.663782	44.740505
1.1543	329.36408	81.302576	44.462963
1.156	234.39537	81.100593	38.33091
1.1577	283.03206	82.305565	42.256073
1.1593999	320.10619	83.930197	43.473516
1.1611	253.73204	84.619742	39.937644
1.1628	328.68904	87.86226	51.248873
1.1645	327.91045	89.477679	52.916761
1.1662001	348.12135	91.291344	51.067823
1.1679	277.05928	92.200226	46.377889
1.1696	295.44843	93.428145	46.462081
1.1713	283.83618	95.030776	45.879963
1.1729999	397.3768	99.856015	60.095464
1.1747	309.06984	100.82251	55.586204
1.1764	261.72285	102.88143	52.320912
1.1781	328.4596	105.98696	55.913999
1.1798001	422.11775	109.56681	62.130007
1.1815	407.56375	112.77621	68.046239
1.1832	384.82955	114.77816	65.494388
1.1849	363.53281	117.31864	65.285201
1.1865999	280.81751	120.08714	62.547834
1.1883	319.07996	123.23038	66.67614
1.19	354.56606	126.36166	70.6346
1.1917	369.0979	130.60925	71.105479
1.1934001	249.9502	131.48918	60.664085
1.1951	231.6161	136.57507	64.316012
1.1968	215.17138	140.20124	61.900249
1.1985	244.71561	147.69909	70.523088
1.2001999	161.70675	151.25529	56.729007
1.2019	390.4991	162.26067	103.27281
1.2036	307.68258	167.58824	106.13842
1.2053	422.37358	179.57843	123.37286
1.2070001	376.79222	181.52052	116.86329
1.2087	212.69292	185.81336	82.620635
1.2104	170.74372	190.60203	76.129481
1.2121	304.56854	204.9088	116.42531
1.2137999	353.70032	223.27054	147.38758
1.2155	359.54319	231.44558	148.60966
1.2172	330.10697	241.8232	127.72236
1.2189	507.80752	260.79488	150.74603
1.2206001	703.7283	283.96742	191.15104
1.2223	148.53654	279.27345	125.71376
1.224	220.53983	295.5747	127.53768
1.2257	195.80028	311.60653	129.47048
1.2273999	269.85427	330.07851	156.43991
1.2291	424.63325	355.07426	200.64501
1.2308	222.94159	384.63823	163.01122
1.2325	0	402.8524	25.42533
1.2342001	145.31473	464.87441	164.52957
1.2359	634.12036	565.13496	358.83405
1.2376	433.94767	648.66827	391.21918
