# HDF: fcm_201403_060  
# /archive/messung/kmc/daten/2014/1Q/pilatus_201403_0957.tif
# Energy (eV)=8800 Distance (mm)=4.5326  Normalization factor =0.00050355671  Center=(499.5,536.2)  Binsize (nm-1)=0.0017
# Normalized by solid angle (1/distance^2), time (PilatusAcqTime_GRAL) and intensity (K4norm_mean)
# Detector quantum efficiency = 95.72% Monitor sensitivity (ph/s/A) = 4.538e+16 Sample thickness (mm) =1 Direct beam(photons * sr) = 0.5261
# q(nm-1)	I_norm	err_pois	err_stdv
0	0	936.83741	38.123531
0.0017	58.310418	496.52836	123.79608
0.0034	126.91824	369.98529	127.41313
0.0051	51.548109	299.09062	67.564931
0.0068	147.57	258.62484	95.25531
0.0085	49.796991	227.393	50.271492
0.0102	131.22392	219.39742	75.181497
0.0119	164.52227	218.07731	83.26804
0.0136	134.10607	210.27271	73.708253
0.0153	93.262567	202.38222	59.590934
0.017	35.24354	195.63573	36.423665
0.0187	62.867289	190.10607	46.333094
0.0204	143.76559	184.13721	66.787354
0.0221	284.03368	174.24102	200.32325
0.0238	3575.5511	278.38904	1786.8134
0.0255	38407.168	956.9521	5953.0335
0.0272	114616.45	1743.9373	6631.8505
0.0289	144652.44	1666.0855	3367.9264
0.0306	135209.69	1376.6793	2500.4778
0.0323	120915.2	1208.3622	1999.0245
0.034	110276.39	1113.2779	1725.4217
0.0357	101099.65	1036.6416	1584.1966
0.0374	90250.05	949.12429	1487.3587
0.0391	82224.922	881.79017	1373.7547
0.0408	74427.445	821.53731	1266.6896
0.0425	65705.756	749.81774	1137.4787
0.0442	58548.399	696.38473	1087.2508
0.0459	50808.852	636.22432	996.42842
0.0476	43378.121	572.79916	853.56567
0.0493	36720.493	516.19935	768.3817
0.051	31056.991	463.76095	729.01558
0.0527	26084.176	418.21633	660.55371
0.0544	21907.665	376.2919	571.30418
0.0561	18130.761	335.25444	518.68483
0.0578	14804.431	299.80524	404.1822
0.0595	11437.293	259.04318	363.13905
0.0612	9407.3647	233.27434	319.35149
0.0629	7253.9649	198.60089	260.36931
0.0646	5908.4568	180.03177	241.41831
0.0663	4684.7516	159.99208	194.03237
0.068	3586.0527	139.65126	173.32501
0.0697	2964.4584	127.50972	151.8016
0.0714	2481.5395	117.85925	131.59457
0.0731	2247.7551	112.91988	115.92682
0.0748	2163.1609	110.13511	110.37129
0.0765	2150.8443	108.22006	116.12698
0.0782	2266.9259	108.28632	117.06056
0.0799	2461.08	111.73821	121.97184
0.0816	2722.6307	113.4586	125.30202
0.0833	3146.8293	119.1094	138.3972
0.085	3296.4938	119.38203	136.8151
0.0867	3892.9151	128.49944	150.61313
0.0884	4255.8331	131.31369	150.2791
0.0901	4212.5968	128.06341	147.73375
0.0918	4572.101	133.05139	154.2758
0.0935	4636.4218	131.88611	145.69706
0.0952	4676.1558	131.2802	152.08367
0.0969	4863.401	132.60361	152.70137
0.0986	4888.1876	131.95645	154.28866
0.1003	4781.7877	128.87637	143.5057
0.102	4683.5163	126.64501	142.33626
0.1037	4497.6693	123.385	148.07062
0.1054	4305.1307	119.77234	142.77241
0.1071	4018.5876	115.61076	133.0505
0.1088	3748.4126	110.30681	119.83713
0.1105	3494.1376	106.04811	120.59343
0.1122	3188.4342	102.39622	114.50308
0.1139	2848.2873	98.289678	106.50375
0.1156	2507.3493	92.290357	98.031467
0.1173	2382.4765	89.737803	95.348147
0.119	2111.678	85.680128	91.015808
0.1207	1763.1687	81.384557	83.758095
0.1224	1553.3193	78.914239	81.694724
0.1241	1271.2413	73.209905	68.216358
0.1258	1185.8903	71.95783	63.47091
0.1275	1032.6198	69.540711	59.061451
0.1292	970.11141	68.768179	59.150637
0.1309	1052.9307	69.315192	59.278718
0.1326	918.17166	67.139667	54.677981
0.1343	899.0451	67.024814	56.422877
0.136	877.43526	66.019173	54.977953
0.1377	915.62783	66.450555	56.54983
0.1394	866.08745	65.379834	53.018882
0.1411	996.14789	67.915957	58.85298
0.1428	1085.1636	69.17179	62.855851
0.1445	1121.2283	69.561351	61.379863
0.1462	1130.0572	69.138077	60.66582
0.1479	1172.3358	70.415771	63.373878
0.1496	1265.8819	71.366733	64.261219
0.1513	1359.6217	72.185029	68.808972
0.153	1383.8344	72.603354	69.840365
0.1547	1381.1957	72.83252	72.270771
0.1564	1467.9861	73.438864	73.457455
0.1581	1514.2463	73.762769	73.641583
0.1598	1416.5702	72.206342	69.56249
0.1615	1422.288	72.311726	68.126954
0.1632	1398.227	72.241771	68.939353
0.1649	1267.8829	69.818556	64.217578
0.1666	1370.8393	71.627075	66.420675
0.1683	1250.8593	69.046942	63.418651
0.17	1141.9843	67.084257	60.563007
0.1717	1069.3707	65.003604	56.372264
0.1734	1073.7421	64.592677	57.404309
0.1751	1062.525	63.744464	55.392065
0.1768	943.92377	61.888624	50.339254
0.1785	886.64903	61.396264	50.141998
0.1802	836.21669	60.028963	48.074591
0.1819	749.8104	58.902554	45.208986
0.1836	723.49581	58.121959	43.756349
0.1853	698.10852	57.865046	43.633081
0.187	677.00931	57.191373	42.339578
0.1887	653.68048	56.510798	41.067802
0.1904	596.75676	56.047387	39.486382
0.1921	568.28149	56.022937	39.000658
0.1938	678.96616	57.523838	44.242861
0.1955	607.13964	56.673583	40.136341
0.1972	524.92338	56.181301	35.767234
0.1989	537.63561	56.44	37.473543
0.2006	625.11135	56.768458	39.528336
0.2023	643.74763	57.0895	40.570726
0.204	604.09654	57.015158	40.128658
0.2057	674.16453	57.670783	42.202031
0.2074	617.92669	57.024328	41.545418
0.2091	663.97204	57.110469	41.204924
0.2108	688.43755	57.498855	42.197326
0.2125	615.33291	56.82526	40.696706
0.2142	629.7082	56.943901	41.778857
0.2159	689.60389	57.317664	43.306479
0.2176	686.9743	56.869903	42.33714
0.2193	696.70947	57.013349	43.43941
0.221	709.16935	56.322602	43.421203
0.2227	688.87297	55.287103	41.500405
0.2244	696.13137	54.672706	40.173937
0.2261	693.77568	54.050775	39.353248
0.2278	688.61061	53.961659	41.286382
0.2295	620.17336	52.639348	37.780247
0.2312	590.7234	52.423557	36.992431
0.2329	569.273	51.778948	35.537738
0.2346	549.5865	51.287161	36.245563
0.2363	584.9685	51.480081	37.018746
0.238	553.61365	51.083488	36.191776
0.2397	570.11595	50.846742	35.659408
0.2414	530.61915	50.038519	33.890731
0.2431	520.25515	49.836096	33.594458
0.2448	523.34519	49.435075	32.454795
0.2465	482.33592	49.053337	32.538033
0.2482	539.78474	49.328608	33.582092
0.2499	464.92086	48.502511	31.055938
0.2516	446.36513	48.080458	29.6233
0.2533	453.41835	48.086476	31.179928
0.255	457.32849	47.839447	30.557963
0.2567	486.86439	47.687268	30.037038
0.2584	448.76917	47.320137	29.803664
0.2601	478.20404	47.187251	29.79993
0.2618	492.70235	47.093511	30.136714
0.2635	493.94627	47.148874	30.893525
0.2652	445.29006	46.32678	28.684982
0.2669	468.47206	46.572951	29.499366
0.2686	493.27211	46.339001	29.525924
0.2703	476.16733	45.933808	28.487767
0.272	469.43208	45.903632	29.606612
0.2737	521.06934	46.152251	30.988228
0.2754	497.91894	45.801425	29.933282
0.2771	490.70671	45.55265	29.837707
0.2788	483.02387	45.343011	30.380697
0.2805	497.9818	45.408179	30.161849
0.2822	475.3173	44.915353	28.360866
0.2839	498.22682	44.877472	28.815138
0.2856	486.12654	44.751049	28.950679
0.2873	466.81533	44.276655	27.429417
0.289	468.06434	44.335842	28.651417
0.2907	460.68361	43.93754	27.53116
0.2924	492.69501	44.168019	28.800575
0.2941	456.54984	43.663508	27.088455
0.2958	434.89348	43.492138	26.644187
0.2975	432.49015	43.15724	26.319491
0.2992	461.84944	43.297698	27.611923
0.3009	454.16116	43.130586	27.322916
0.3026	448.47784	42.99554	26.857408
0.3043	420.76673	42.613073	25.725124
0.306	396.08925	42.278016	24.896195
0.3077	395.80839	42.235337	24.865182
0.3094	432.53158	42.245084	25.598115
0.3111	409.79648	42.070817	25.834418
0.3128	387.80129	41.634793	24.38342
0.3145	427.676	41.978794	25.852001
0.3162	404.49557	41.553186	24.245234
0.3179	399.04781	41.439372	24.71628
0.3196	424.33435	41.465724	25.30908
0.3213	381.43585	41.069171	23.718616
0.323	354.5188	40.881973	23.616676
0.3247	380.3959	40.895892	24.186076
0.3264	383.92281	40.782186	24.248833
0.3281	407.4839	40.623318	24.17976
0.3298	409.5667	40.630343	24.293422
0.3315	389.12449	40.389114	23.89418
0.3332	380.58858	40.130888	23.452276
0.3349	398.20918	40.272204	23.556064
0.3366	421.22025	40.306205	24.382212
0.3383	436.77493	40.147345	24.645829
0.34	390.1605	39.770623	23.38492
0.3417	389.8491	39.793013	24.03945
0.3434	391.20574	39.711831	23.711029
0.3451	353.54979	39.238617	22.169896
0.3468	393.55666	39.457497	23.765994
0.3485	385.31711	39.228504	23.048322
0.3502	395.81739	39.211507	23.202601
0.3519	387.55538	38.93998	22.59254
0.3536	389.3922	38.829814	22.740906
0.3553	416.81631	39.134565	24.097863
0.357	383.53447	38.744689	23.105889
0.3587	363.98452	38.59471	22.633069
0.3604	323.74425	38.111768	20.28088
0.3621	359.25074	38.288797	21.699788
0.3638	376.6526	38.349213	22.396651
0.3655	374.26978	38.169945	22.216833
0.3672	370.15234	38.027106	21.874161
0.3689	350.54684	37.783602	20.942834
0.3706	371.73743	37.85082	21.803583
0.3723	380.10543	37.759836	21.934858
0.374	365.88854	37.546523	21.665452
0.3757	366.7307	37.581061	21.667484
0.3774	394.0375	37.670117	22.1514
0.3791	370.47244	37.323309	21.140042
0.3808	371.991	37.336418	21.596976
0.3825	376.34585	37.161611	21.310431
0.3842	368.73646	37.035739	20.971191
0.3859	372.91127	37.020033	21.793076
0.3876	353.49268	36.869355	21.562376
0.3893	359.22725	36.823214	21.100366
0.391	353.347	36.633912	20.723997
0.3927	358.56963	36.581445	20.525246
0.3944	343.89998	36.419863	20.717554
0.3961	355.78323	36.415095	21.076238
0.3978	392.08293	36.532293	21.573101
0.3995	372.56558	36.288553	20.811791
0.4012	353.60862	36.136617	20.364728
0.4029	346.36667	36.036638	20.445305
0.4046	367.60709	36.082719	21.1015
0.4063	382.79823	35.975283	20.825493
0.408	369.32475	35.914457	20.791326
0.4097	346.1423	35.729696	20.15163
0.4114	374.12682	35.906138	21.034674
0.4131	348.86452	35.607993	20.393621
0.4148	357.24459	35.52454	20.537754
0.4165	365.15526	35.429106	20.089092
0.4182	332.73502	35.234666	19.078636
0.4199	327.7366	35.188776	19.222466
0.4216	358.81453	35.2369	20.062352
0.4233	350.49707	35.101051	19.859942
0.425	328.68845	34.905387	18.857436
0.4267	336.17572	34.828803	19.003717
0.4284	326.66665	34.78183	19.360328
0.4301	349.57111	34.855432	19.712397
0.4318	371.85541	34.870465	19.978818
0.4335	359.13587	34.699098	19.418238
0.4352	336.24644	34.554583	19.472221
0.4369	325.41601	34.403524	18.774976
0.4386	336.23739	34.388062	18.966696
0.4403	347.96114	34.347377	19.321378
0.442	361.25263	34.399307	19.645525
0.4437	351.34854	34.200006	19.098208
0.4454	346.04474	34.154971	19.027091
0.4471	331.44103	34.091715	19.255597
0.4488	319.92223	33.912082	18.521339
0.4505	300.01809	33.683644	17.638942
0.4522	330.35965	33.854829	18.664638
0.4539	366.70525	33.972323	19.698779
0.4556	342.42146	33.611743	18.351138
0.4573	341.20142	33.633489	18.237768
0.459	341.95456	33.563272	18.509042
0.4607	372.53265	33.634899	19.156504
0.4624	359.68252	33.540027	19.216129
0.4641	331.21959	33.286936	18.040807
0.4658	335.27642	33.32491	18.092356
0.4675	358.37681	33.382114	18.848863
0.4692	330.81735	33.115566	18.306355
0.4709	332.98531	33.059482	18.144558
0.4726	342.17821	33.060987	18.337927
0.4743	329.83662	33.026683	18.40294
0.476	340.62793	32.909544	17.963838
0.4777	326.80186	32.824186	17.927766
0.4794	328.24561	32.759092	18.087506
0.4811	360.21393	32.872639	18.717864
0.4828	342.34745	32.637769	17.922793
0.4845	354.0372	32.799015	18.599987
0.4862	330.73426	32.590907	17.972623
0.4879	344.96428	32.564082	18.096219
0.4896	317.38568	32.321236	17.389095
0.4913	332.27845	32.301713	17.516466
0.493	328.3781	32.318547	17.690784
0.4947	323.8786	32.321639	18.002426
0.4964	318.45871	32.154989	17.333575
0.4981	344.8516	32.342446	18.339016
0.4998	346.34311	32.56767	18.172233
0.5015	341.9276	32.665149	17.769039
0.5032	342.60857	32.783494	18.313937
0.5049	330.86049	32.790156	17.850467
0.5066	338.89476	32.877526	18.051708
0.5083	326.67748	32.880348	17.89788
0.51	329.92536	32.952334	18.093837
0.5117	324.82941	32.935034	18.208113
0.5134	311.37585	32.902782	17.618481
0.5151	338.06202	33.086518	18.340799
0.5168	329.93534	33.051111	18.356296
0.5185	350.07414	33.072218	18.392866
0.5202	347.02284	33.055509	18.153618
0.5219	332.55264	33.111993	18.127294
0.5236	317.70122	32.931346	17.734559
0.5253	339.81883	33.149086	18.516506
0.527	314.56389	32.792401	17.553313
0.5287	319.3915	32.592749	17.273008
0.5304	321.55801	32.455883	17.52727
0.5321	313.48983	32.177387	17.62184
0.5338	330.49098	32.197113	17.795341
0.5355	312.13467	31.922842	16.805195
0.5372	323.01452	31.874958	17.12808
0.53889997	340.00452	31.855798	17.6115
0.5406	315.59413	31.697803	17.179355
0.54230003	303.20845	31.61418	16.446987
0.544	290.71729	31.428173	16.066975
0.54569997	304.30018	31.375359	16.478063
0.5474	329.81679	31.384389	17.17451
0.54910003	349.41045	31.580875	17.792271
0.5508	329.31361	31.643957	17.345798
0.55249997	317.06017	31.628	16.900704
0.5542	328.84793	31.862408	17.484623
0.55590003	327.17841	31.841597	17.205346
0.5576	325.81743	31.890516	17.3823
0.55929997	338.60837	31.9555	17.504873
0.561	297.7463	31.866329	16.769496
0.56270003	315.10735	32.022237	17.004416
0.5644	314.86887	31.943977	17.133749
0.56609997	334.30981	32.0279	17.582122
0.5678	324.58493	32.052513	17.656231
0.56950003	330.95392	32.118148	17.673707
0.5712	313.43417	31.997909	17.305792
0.57289997	329.55517	32.122816	17.723695
0.5746	296.58118	31.920559	16.430263
0.57630003	288.69738	31.889033	16.329132
0.578	298.37441	31.768705	16.493478
0.57969997	320.34676	31.608417	16.77215
0.5814	324.47618	31.41148	16.476675
0.58310003	313.09478	31.301576	16.41884
0.5848	310.79756	31.067727	16.414335
0.58649997	339.03689	31.171246	17.690227
0.5882	329.15512	30.981914	17.093582
0.58990003	323.52563	30.854532	16.49984
0.5916	300.42471	30.63738	15.817214
0.59329997	314.26481	30.602414	16.050977
0.595	319.07502	30.603579	16.707756
0.59670003	323.79092	30.517169	16.321329
0.5984	314.81436	30.432287	15.944126
0.60009997	303.81336	30.222362	15.857966
0.6018	336.18554	30.360543	16.752873
0.60350003	331.42499	30.30619	16.73022
0.6052	314.99596	30.146198	15.975769
0.60689997	289.96261	29.978973	15.476352
0.6086	323.09471	30.077174	16.354724
0.61030003	305.89304	29.862202	15.659199
0.612	320.30586	29.975115	16.222154
0.61369997	306.14173	29.799427	15.848454
0.6154	313.22039	29.740729	15.934218
0.61710003	328.89151	29.738201	16.189263
0.6188	327.61102	29.738614	16.34568
0.62049997	302.21011	29.556186	15.532012
0.6222	323.87375	29.571128	15.982054
0.62390003	321.9501	29.515789	15.893053
0.6256	301.10245	29.366261	15.385833
0.62729997	307.28931	29.388113	15.489526
0.629	297.50054	29.24964	15.315013
0.63070003	305.75896	29.19354	15.313688
0.6324	337.51963	29.325308	16.001597
0.63409997	329.77992	29.191764	15.907379
0.6358	304.90456	29.000407	15.142307
0.63750003	282.33082	28.879378	14.430998
0.6392	316.54992	29.117	15.829672
0.64089997	331.75035	29.10956	16.144672
0.6426	300.70687	28.824764	15.140517
0.64430003	317.93825	28.836988	15.337309
0.646	300.02291	28.772803	14.933764
0.64769997	307.38894	28.74954	15.319498
0.6494	319.27849	28.770523	15.85094
0.65110003	319.49161	28.771403	15.713436
0.6528	306.06983	28.628719	15.158726
0.65449997	296.22226	28.480208	14.868911
0.6562	329.61296	28.542936	15.360904
0.65790003	321.29952	28.502397	15.135069
0.6596	319.14009	28.516861	15.322441
0.66129997	313.74266	28.379666	14.950534
0.663	300.93254	28.247894	14.678671
0.66470003	319.46397	28.320161	15.123413
0.6664	277.62309	28.1443	14.29126
0.66809997	276.66076	28.152157	14.565161
0.6698	301.15643	28.150321	14.878287
0.67150003	306.08063	28.136353	14.90561
0.6732	304.32438	28.062089	14.853448
0.67489997	316.21464	28.101291	15.336878
0.6766	297.75772	27.902611	14.704489
0.67830003	340.06059	28.076202	15.307528
0.68	323.66545	27.938885	14.895189
0.68169997	292.37867	27.781244	14.30306
0.6834	285.80372	27.737633	14.366428
0.68510003	280.7705	27.667365	14.299784
0.6868	303.80954	27.739414	14.362157
0.68849997	312.67946	27.677765	14.651531
0.6902	300.66666	27.650047	14.659095
0.69190003	281.87307	27.546838	14.080255
0.6936	295.48569	27.565734	14.617462
0.69529997	308.16064	27.548258	14.752992
0.697	290.79314	27.402437	14.153088
0.69870003	313.73751	27.490536	14.547689
0.7004	337.18302	27.537553	14.984207
0.70209997	323.99942	27.383275	14.652923
0.7038	313.05453	27.28648	14.296634
0.70550003	314.08599	27.290321	14.54146
0.7072	310.34857	27.254787	14.352603
0.70889997	307.86567	27.211292	14.462571
0.7106	324.50973	27.221019	14.818414
0.71230003	310.83873	27.150206	14.54978
0.714	293.16681	27.058129	14.167067
0.71569997	293.44593	27.098701	14.533038
0.7174	302.91478	27.033464	14.515333
0.71910003	286.41372	26.85922	13.703009
0.7208	298.2055	26.936307	14.158896
0.72249997	324.7357	26.990896	14.658238
0.7242	310.22792	26.871471	14.104118
0.72590003	311.47181	26.842898	14.123045
0.7276	305.81451	26.794281	14.084486
0.72929997	300.45209	26.760428	13.9839
0.731	292.12575	26.676187	13.928884
0.73270003	315.06917	26.71496	14.3975
0.7344	316.34047	26.699361	14.410415
0.73609997	302.859	26.665183	14.250216
0.7378	312.88456	26.648273	14.518244
0.73950003	320.17441	26.573234	14.279725
0.7412	312.73429	26.510366	13.96852
0.74289997	293.33288	26.445508	13.775632
0.7446	309.75638	26.507209	14.240416
0.74630003	296.74636	26.343769	13.6897
0.748	293.14293	26.400094	13.928222
0.74969997	280.3068	26.243248	13.323469
0.7514	285.04927	26.213031	13.243154
0.75310003	282.49654	26.139885	13.057244
0.7548	295.01157	26.228474	13.688073
0.75649997	300.62091	26.252549	13.729989
0.7582	303.88201	26.168956	13.746302
0.75990003	315.65323	26.180822	14.034584
0.7616	294.8439	26.053627	13.564638
0.76329997	288.90758	26.025293	13.426804
0.765	317.73839	26.120423	13.934903
0.76670003	316.42421	26.050139	13.955413
0.7684	288.58949	25.89045	13.284249
0.77009997	300.99761	25.925088	13.503205
0.7718	301.35984	25.870872	13.5715
0.77350003	311.34057	25.884839	13.711698
0.7752	304.71313	25.866189	13.543866
0.77689997	306.48506	25.862924	13.702055
0.7786	287.67265	25.735075	13.531788
0.78030003	326.22872	25.87424	14.335235
0.782	306.71413	25.698057	13.489177
0.78369997	290.65758	25.661084	13.163893
0.7854	293.12533	25.631768	13.177201
0.78710003	294.31243	25.580764	13.350232
0.7888	303.46509	25.607299	13.525146
0.79049997	283.74549	25.505786	13.045145
0.7922	301.92623	25.558702	13.484396
0.79390003	311.07295	25.559789	13.700493
0.7956	324.62816	25.565724	13.803574
0.79729997	318.48866	25.485129	13.687068
0.799	318.92227	25.452027	13.514744
0.80070003	306.31494	25.398508	13.540788
0.8024	330.74337	25.489599	13.969763
0.80409997	315.29502	25.397301	13.614645
0.8058	298.0115	25.299198	13.185032
0.80750003	295.17412	25.242998	13.054837
0.8092	293.40065	25.220626	13.149076
0.81089997	301.44667	25.247229	13.242029
0.8126	296.41848	25.167232	13.003364
0.81430003	307.47067	25.30402	13.342238
0.816	290.38728	25.461885	13.498811
0.81769997	291.48999	25.546499	13.457877
0.8194	281.35098	25.582028	13.239976
0.82110003	276.25763	25.582521	13.067906
0.8228	288.80684	25.630181	13.108799
0.82449997	305.01381	25.74781	13.602914
0.8262	319.78706	25.816953	14.100761
0.82790003	303.10887	25.738169	13.654648
0.8296	271.37779	25.597038	12.831956
0.83129997	289.05799	25.754293	13.354777
0.833	294.43823	25.734553	13.262634
0.83470003	284.31528	25.634612	13.045072
0.8364	305.63787	25.748974	13.469544
0.83809997	293.39278	25.763574	13.440948
0.8398	273.01597	25.673733	12.889077
0.84150003	289.46881	25.658656	13.122418
0.8432	296.61879	25.701072	13.380606
0.84489997	300.46851	25.774301	13.538683
0.8466	322.06853	25.989498	14.326761
0.84830003	318.82745	26.149499	14.172397
0.85	308.49449	26.242301	13.818873
0.85169997	294.32421	26.306236	13.577204
0.8534	297.48858	26.49276	14.078873
0.85510003	290.58366	26.405923	13.54975
0.8568	287.82463	26.594739	13.825056
0.85849997	299.92742	26.946941	14.113664
0.8602	303.50132	27.150415	14.277206
0.86190003	295.24765	27.207579	14.264548
0.8636	292.07961	27.347468	14.062593
0.86529997	276.22825	27.482365	13.827412
0.867	287.61873	27.567854	13.913472
0.86870003	299.7844	27.73605	14.448782
0.8704	288.65069	27.827871	14.50341
0.87209997	289.30564	27.919046	14.036853
0.8738	283.0597	27.949288	14.024639
0.87550003	312.74867	28.162007	14.87954
0.8772	319.95902	28.332068	15.138322
0.87889997	304.11629	28.363372	14.736668
0.8806	289.34474	28.480288	14.86406
0.88230003	271.91373	28.411298	14.179621
0.884	269.48948	28.514407	14.004748
0.88569997	292.24997	28.733638	14.836305
0.8874	300.09328	28.80722	14.984922
0.88910003	287.14319	28.878877	14.757336
0.8908	294.53627	28.95396	14.760071
0.89249997	295.26559	29.080847	15.074783
0.8942	321.26168	29.30683	15.819312
0.89590003	318.97408	29.368052	15.74723
0.8976	284.66905	29.294357	14.844465
0.89929997	276.63996	29.342708	14.802879
0.901	305.8454	29.619018	15.763472
0.90270003	290.00132	29.550598	15.287657
0.9044	281.77044	29.592526	14.905456
0.90609997	296.80998	29.776791	15.356836
0.9078	285.68935	29.915249	15.290446
0.90950003	275.54775	30.209691	15.181389
0.9112	301.83941	30.646333	16.074898
0.91289997	284.25388	30.846293	15.97846
0.9146	285.7854	31.110672	16.28475
0.91630003	312.18237	31.498225	17.039325
0.918	284.84704	31.572293	16.361375
0.91969997	273.45665	31.628714	15.534548
0.9214	286.6762	31.902442	16.251876
0.92310003	308.50905	32.18359	17.004568
0.9248	275.96746	32.247138	16.446895
0.92649997	280.03953	32.480917	16.60582
0.9282	313.93027	32.893453	17.606292
0.92990003	305.40534	32.952704	17.238913
0.9316	327.33211	33.156976	17.664012
0.93329997	285.25287	33.11052	16.726739
0.935	321.43236	33.677733	18.356995
0.93670003	295.19602	33.650016	17.818964
0.9384	305.82025	33.837651	17.906009
0.94009997	289.85543	33.999692	17.533039
0.9418	272.03381	34.081931	16.74759
0.94350003	301.71737	34.414706	18.287268
0.9452	303.01358	34.445167	17.923527
0.94689997	315.35903	34.805414	18.409933
0.9486	298.37595	34.970274	18.16955
0.95030003	287.39848	35.109256	18.139782
0.952	287.20332	35.072887	17.717843
0.95369997	309.47522	35.557361	19.08828
0.9554	318.32836	35.752674	18.976315
0.95710003	271.03039	35.611484	17.814623
0.9588	273.92393	35.748624	18.005898
0.96049997	295.45728	36.127192	18.879615
0.9622	287.30731	36.204283	18.31329
0.96390003	282.00377	36.160905	17.916887
0.9656	292.25172	36.507451	18.677048
0.96729997	267.03078	36.543398	18.258595
0.969	287.82185	36.88168	19.097801
0.97070003	264.44567	36.793141	17.894891
0.9724	302.58222	37.176929	18.897982
0.97409997	280.14091	37.284976	18.426346
0.9758	315.55306	37.657027	19.804396
0.97750003	324.80616	37.981401	21.053922
0.9792	288.92471	37.857038	19.862278
0.98089997	294.99879	38.275008	20.362398
0.9826	270.0957	38.347016	19.631632
0.98430003	266.53704	38.312719	19.674852
0.986	262.36738	38.423677	19.748873
0.98769997	267.92549	38.495859	19.144073
0.9894	267.73119	38.670099	19.187632
0.99110003	283.14116	38.876003	19.804801
0.9928	289.39202	39.070909	20.005957
0.99449997	269.83124	39.04276	19.008986
0.9962	275.8102	39.191289	19.533805
0.99790003	244.14593	39.23865	19.100544
0.9996	255.38753	39.348551	18.761906
1.0013	256.3938	39.744889	19.671104
1.003	283.88422	40.037903	20.063293
1.0047	281.78394	40.205186	20.056496
1.0064	256.21494	40.282598	19.644256
1.0081	294.22194	40.639945	21.161897
1.0098	293.23665	40.843104	21.019109
1.0115	285.23505	40.965585	20.564286
1.0132	269.68017	41.123209	20.333742
1.0149	256.39208	41.356881	20.832174
1.0166	285.48723	41.617467	21.936269
1.0183	302.70828	41.799305	21.946188
1.02	315.46186	42.092179	22.595177
1.0217	246.47073	41.767453	19.957549
1.0234	254.63799	42.029415	20.120707
1.0251	255.43789	42.41015	20.743894
1.0268	236.02702	42.540643	20.0954
1.0285	248.73676	42.605649	20.388724
1.0302	276.76931	43.042539	21.448387
1.0319	262.69798	43.158816	21.324487
1.0336	263.71236	43.534673	22.05186
1.0353	317.52234	44.219128	23.977289
1.037	277.72009	44.047255	22.119633
1.0387	261.71586	44.274117	21.607922
1.0404	284.12489	44.580159	22.857355
1.0421	260.84994	44.755243	22.009355
1.0438	261.13171	44.891428	21.909105
1.0455	304.95321	45.609703	23.901782
1.0472	291.8646	45.850755	23.51689
1.0489	278.3446	45.800833	23.0921
1.0506	284.13444	46.218858	23.177555
1.0523	261.07567	46.286228	22.497149
1.054	260.74678	46.469694	22.457151
1.0557	288.98191	47.113808	24.35607
1.0574	278.82105	47.378	23.652994
1.0591	274.85812	47.735732	23.475391
1.0608	284.31401	47.939867	24.403966
1.0625	265.69812	48.065333	23.456475
1.0642	282.19869	48.506406	24.269961
1.0659	317.50511	49.08432	25.793371
1.0676	299.74972	49.30836	26.269788
1.0693	287.35004	49.558962	25.234146
1.071	281.15215	49.914041	25.041982
1.0727	258.63085	49.875387	23.859704
1.0744	243.61142	50.120474	23.06779
1.0761	250.62505	50.634425	24.066423
1.0777999	258.99696	51.236762	24.722302
1.0795	265.03337	51.708619	26.331213
1.0812	277.76773	52.097659	27.168673
1.0829	230.90125	51.906203	23.823121
1.0846001	269.2033	52.607263	26.213628
1.0863	250.40719	52.79202	25.581649
1.088	277.43382	53.42979	27.189038
1.0897	298.30046	54.01991	27.045848
1.0913999	244.84753	54.125879	24.506345
1.0931	253.54523	54.273916	25.383846
1.0948	263.4481	54.980161	26.905411
1.0965	256.49524	55.158249	26.23177
1.0982001	283.61271	56.151535	28.885089
1.0999	242.97939	56.221705	27.131883
1.1016	254.91394	56.792302	27.383987
1.1033	274.08157	57.528857	27.895359
1.1049999	254.42372	57.607949	27.685318
1.1067	281.4639	58.213057	28.385378
1.1084	281.37163	58.76163	29.134108
1.1101	243.95055	59.20354	28.159159
1.1118001	251.44223	59.962048	29.745131
1.1135	305.28242	60.716107	31.981663
1.1152	267.27208	61.003903	29.908561
1.1169	251.63268	61.584709	30.215225
1.1185999	226.79922	61.672633	28.064123
1.1203	275.29844	62.917513	32.118573
1.122	273.71809	63.756952	32.031532
1.1237	326.56495	64.843327	34.586398
1.1254001	304.90056	64.856303	34.216515
1.1271	237.04215	65.192829	32.576251
1.1288	239.01578	65.66956	31.134889
1.1305	286.15042	66.807743	32.98106
1.1321999	310.48268	67.952799	35.89166
1.1339	265.36222	68.553594	34.046292
1.1356	266.15883	69.421389	33.834166
1.1373	303.86991	69.996033	35.78112
1.1390001	267.59933	70.537541	34.024538
1.1407	279.74432	71.883814	37.443825
1.1424	287.88284	73.128091	40.754617
1.1441	301.02942	73.941037	38.818025
1.1457999	251.25248	74.39283	35.008048
1.1475	266.87093	75.827871	37.579163
1.1492	277.39529	75.900068	36.577953
1.1509	261.94522	77.522462	37.784316
1.1526001	237.36695	78.502631	38.238095
1.1543	287.29858	80.416409	39.92248
1.156	342.59371	82.600907	45.4008
1.1577	300.01694	82.696999	44.339393
1.1593999	261.68567	83.658755	41.035041
1.1611	321.18542	86.260912	47.711633
1.1628	260.0905	86.951282	45.291898
1.1645	193.93667	88.062396	41.275089
1.1662001	204.88531	89.441641	38.608282
1.1679	321.26135	92.798833	48.98191
1.1696	309.39109	94.135799	52.221234
1.1713	252.72758	95.342295	46.736479
1.1729999	246.206	97.195024	45.629859
1.1747	257.50225	100.26651	48.158384
1.1764	227.37474	101.78912	44.320532
1.1781	206.36434	104.2384	43.608456
1.1798001	246.22575	107.92701	50.170288
1.1815	245.51994	110.2272	53.472218
1.1832	359.53308	115.05842	62.818403
1.1849	330.39913	116.78463	63.692227
1.1865999	308.73069	120.41142	62.579338
1.1883	252.57151	121.4046	55.270553
1.19	240.3787	124.32204	55.518688
1.1917	281.91929	129.99003	64.721963
1.1934001	282.51222	133.7526	71.671759
1.1951	214.85126	135.49788	60.163084
1.1968	188.17501	140.49075	62.769192
1.1985	301.37772	149.17217	84.469763
1.2001999	243.75523	153.8348	76.999611
1.2019	191.99619	157.07764	64.05324
1.2036	222.10276	163.85364	70.75837
1.2053	344.7704	174.09883	89.701169
1.2070001	278.10502	177.47717	84.497424
1.2087	475.85232	192.22609	107.8966
1.2104	443.2759	196.76988	110.5263
1.2121	319.38183	202.61622	100.54261
1.2137999	193.90553	213.14385	87.604595
1.2155	273.8588	224.96431	110.65277
1.2172	333.04248	247.09578	144.46699
1.2189	226.24695	253.5826	111.61283
1.2206001	190.87846	266.32265	109.36247
1.2223	234.67682	282.58984	125.28228
1.224	323.12206	297.51424	150.81678
1.2257	166.55327	310.34422	119.39192
1.2273999	271.03769	330.82463	154.34981
1.2291	505.35377	359.8535	212.33416
1.2308	224.04382	383.27833	166.7679
1.2325	373.87298	419.37997	227.17498
1.2342001	401.50038	480.31355	260.31548
1.2359	0	525.86167	51.626646
1.2376	0	633.54957	0
