# HDF: fcm_201403_060  
# /archive/messung/kmc/daten/2014/1Q/pilatus_201403_0951.tif
# Energy (eV)=8800 Distance (mm)=4.5326  Normalization factor =0.00050423986  Center=(499.5,536.2)  Binsize (nm-1)=0.0017
# Normalized by solid angle (1/distance^2), time (PilatusAcqTime_GRAL) and intensity (K4norm_mean)
# Detector quantum efficiency = 95.72% Monitor sensitivity (ph/s/A) = 4.538e+16 Sample thickness (mm) =1 Direct beam(photons * sr) = 0.5268
# q(nm-1)	I_norm	err_pois	err_stdv
0	0	935.56818	240.36912
0.0017	367.6476	515.90492	290.84301
0.0034	129.65644	366.5085	121.38994
0.0051	0	297.32107	7.4144987
0.0068	0	253.72857	2.4225388
0.0085	38.323566	227.36144	44.487717
0.0102	21.640163	216.07995	32.043242
0.0119	111.04589	216.19439	68.484403
0.0136	211.08037	212.391	89.871635
0.0153	101.81404	202.19916	62.49092
0.017	72.839257	196.06333	51.230635
0.0187	29.493698	189.14823	32.260444
0.0204	43.24746	181.60128	37.850845
0.0221	163.27879	171.12798	159.7065
0.0238	1767.5982	234.96439	689.73725
0.0255	9067.4095	471.96838	1582.3577
0.0272	16871.119	600.52589	1694.6154
0.0289	19251.368	580.27421	1306.901
0.0306	14669.089	445.99474	889.87636
0.0323	9425.1009	329.04155	449.35811
0.034	7317.2056	281.97004	355.76914
0.0357	6555.9326	261.09954	306.65372
0.0374	6117.3017	244.77781	270.70758
0.0391	6039.8454	237.84474	280.22208
0.0408	5706.9549	223.47191	264.7743
0.0425	5868.5887	224.2347	256.40658
0.0442	5737.8064	216.48977	237.47607
0.0459	5781.9094	212.88815	248.57892
0.0476	5836.5834	209.7744	251.46328
0.0493	6069.8516	211.17578	255.6505
0.051	6100.4251	205.21479	245.99154
0.0527	6078.7001	203.16015	248.53686
0.0544	5890.9128	195.34682	245.43701
0.0561	6220.9777	197.77311	224.91088
0.0578	6221.2373	193.92624	236.67283
0.0595	6580.4232	198.87565	230.85624
0.0612	6146.6029	187.83489	214.03658
0.0629	6062.6646	182.3612	199.75318
0.0646	6159.4623	181.55163	207.56289
0.0663	5857.5959	175.35104	213.7859
0.068	5911.4448	175.53986	199.02854
0.0697	5957.1498	173.43442	200.94865
0.0714	5833.4618	168.35201	200.70499
0.0731	5649.9711	164.79117	195.4951
0.0748	5530.2048	159.52337	183.48007
0.0765	5651.1016	160.25201	179.46974
0.0782	5320.2849	154.96123	185.84722
0.0799	5225.8612	151.65119	173.28645
0.0816	4990.5065	146.67012	169.80647
0.0833	4634.2067	139.08044	157.74087
0.085	4389.8039	135.03494	161.0893
0.0867	4025.7932	128.31305	148.6443
0.0884	3840.6533	124.73325	137.19047
0.0901	3769.754	121.71555	136.05829
0.0918	3426.4401	116.08881	128.82278
0.0935	3155.7292	111.64995	126.13697
0.0952	2752.5332	104.52695	114.20955
0.0969	2459.9422	100.01947	106.63418
0.0986	2287.0452	96.94414	102.55417
0.1003	1972.9511	92.012362	97.423196
0.102	1739.7589	87.874566	88.372837
0.1037	1462.0809	82.3747	79.563385
0.1054	1460.2936	83.153469	82.022975
0.1071	1333.2011	80.383682	78.545268
0.1088	1162.8013	77.551724	72.881287
0.1105	1028.1938	75.247783	64.833863
0.1122	906.7777	73.423163	62.377198
0.1139	872.19621	72.380792	58.826554
0.1156	873.84514	71.680253	58.629481
0.1173	863.18654	71.534903	59.985484
0.119	870.21145	70.544691	58.464105
0.1207	853.60982	70.079894	56.494475
0.1224	834.80694	69.091839	54.276824
0.1241	806.69734	68.463724	55.718786
0.1258	816.60786	68.27712	54.181664
0.1275	856.91844	67.692047	54.653679
0.1292	1023.9934	69.469289	59.8179
0.1309	1065.8841	69.585833	59.46042
0.1326	938.82744	66.972093	55.981032
0.1343	1021.5859	67.798123	57.691161
0.136	1040.0061	67.942284	59.708241
0.1377	1104.4614	68.06963	61.034884
0.1394	1140.6196	68.73795	61.847202
0.1411	1228.0993	70.351666	63.633479
0.1428	1290.8588	71.800994	67.770692
0.1445	1170.9786	70.052861	64.969217
0.1462	1298.3401	70.768966	63.659603
0.1479	1312.6462	71.850781	67.514937
0.1496	1239.295	70.587201	64.611294
0.1513	1273.7411	71.185321	64.66663
0.153	1132.1518	69.466718	61.833103
0.1547	1133.773	69.099811	59.915468
0.1564	1142.1275	69.163931	60.869269
0.1581	1098.0484	68.588477	60.534551
0.1598	1091.7066	69.107708	61.904115
0.1615	1041.6436	67.867252	59.676037
0.1632	1001.2829	67.494605	57.867545
0.1649	971.58359	66.887413	55.710689
0.1666	886.23653	65.890633	55.124575
0.1683	831.66879	64.822567	53.397756
0.17	789.23155	63.263912	49.744564
0.1717	707.39873	61.391034	47.121567
0.1734	687.05342	60.734362	46.203816
0.1751	704.32269	60.302925	46.052031
0.1768	721.52274	59.703815	44.784897
0.1785	739.61892	59.499587	43.953263
0.1802	676.23595	58.432721	42.7577
0.1819	638.9487	57.964256	42.405118
0.1836	683.52802	58.132845	43.132223
0.1853	629.99204	56.91691	41.165951
0.187	577.07039	56.136947	39.498221
0.1887	630.82345	56.509705	41.046122
0.1904	662.93821	56.746016	42.522069
0.1921	637.20574	56.810294	41.666446
0.1938	621.3234	56.952878	42.01608
0.1955	636.34892	56.854888	40.476967
0.1972	632.88841	57.574476	42.254356
0.1989	646.89995	57.887858	43.795671
0.2006	690.48001	57.198482	42.442586
0.2023	734.26728	58.232157	45.304047
0.204	716.86243	57.903524	43.941331
0.2057	777.66223	58.91423	48.125059
0.2074	733.84239	57.607899	43.607888
0.2091	747.44972	58.062324	45.345482
0.2108	747.33145	58.150126	44.840668
0.2125	653.30907	56.903914	41.77789
0.2142	715.84532	57.46283	42.879006
0.2159	751.14191	57.74004	45.081555
0.2176	749.21443	57.618697	44.689596
0.2193	702.21252	56.607041	41.976056
0.221	722.16189	56.236961	44.532325
0.2227	691.88377	55.413495	42.738399
0.2244	670.38577	54.746808	41.192377
0.2261	639.47413	53.936887	39.850448
0.2278	633.09917	53.170079	38.271791
0.2295	613.98133	52.550224	37.759537
0.2312	620.19901	52.369049	37.307429
0.2329	648.36855	52.38899	37.912069
0.2346	580.60873	51.376307	35.508039
0.2363	575.34569	51.334188	36.156648
0.238	587.35935	51.005311	35.384206
0.2397	626.66434	50.940545	35.844962
0.2414	584.83711	50.673918	36.840608
0.2431	563.38267	50.063264	34.888782
0.2448	564.24955	49.974247	34.88633
0.2465	543.20747	49.394605	32.993024
0.2482	567.811	49.208204	32.874463
0.2499	547.06439	48.721919	32.559393
0.2516	590.66093	49.193472	34.371871
0.2533	579.7817	48.822077	34.338622
0.255	597.30854	48.782219	34.095252
0.2567	597.91452	48.337222	33.41793
0.2584	583.98744	47.978386	33.141647
0.2601	529.29493	47.240298	30.5341
0.2618	545.81665	47.643979	32.234557
0.2635	566.16798	47.409179	32.682949
0.2652	563.66797	47.130665	31.963734
0.2669	558.31786	46.887706	31.397345
0.2686	620.67468	47.166297	32.860714
0.2703	603.4592	46.952446	33.906017
0.272	576.40423	46.595036	32.631248
0.2737	522.53243	45.973504	30.45144
0.2754	562.53779	46.266838	32.451743
0.2771	541.88302	45.766675	31.506513
0.2788	550.3412	45.755557	31.926949
0.2805	596.46371	45.945803	32.623306
0.2822	582.54591	45.729289	31.536186
0.2839	506.17365	44.744004	28.926841
0.2856	554.9164	45.148412	30.626793
0.2873	520.26823	44.628084	29.911643
0.289	529.69577	44.545801	30.337459
0.2907	544.68683	44.556802	29.846217
0.2924	504.3892	44.072548	28.650077
0.2941	533.65718	44.309398	30.097547
0.2958	507.51323	43.829016	28.767313
0.2975	527.26449	43.845299	29.523006
0.2992	560.79211	43.877141	29.666781
0.3009	480.46146	43.198914	28.132968
0.3026	547.64602	43.661875	29.776549
0.3043	523.52194	43.13594	28.92905
0.306	547.2083	43.34173	30.03875
0.3077	532.09318	43.022402	28.896373
0.3094	517.27825	42.671645	27.922872
0.3111	496.86468	42.439401	27.394892
0.3128	496.28606	42.325997	27.609483
0.3145	534.68676	42.606092	29.085476
0.3162	530.29756	42.262398	28.085091
0.3179	506.20882	42.019405	27.855114
0.3196	493.70114	41.746232	27.134724
0.3213	490.97283	41.703172	27.009779
0.323	512.69082	41.662383	27.046569
0.3247	539.0444	41.705163	27.883659
0.3264	532.59515	41.539629	27.84398
0.3281	510.26562	41.182201	27.239656
0.3298	527.63501	41.43892	28.384577
0.3315	482.45351	40.882118	26.517314
0.3332	527.32483	40.991119	27.617614
0.3349	562.45735	41.416114	28.869772
0.3366	506.63265	40.665965	26.363137
0.3383	515.27393	40.626358	27.145037
0.34	526.1407	40.522957	27.419545
0.3417	515.37648	40.356052	26.831961
0.3434	504.63685	40.149308	26.317897
0.3451	514.35422	40.242566	27.058482
0.3468	493.76107	39.943348	26.370206
0.3485	507.76637	40.053616	27.141812
0.3502	516.96955	39.86983	26.731801
0.3519	509.6146	39.668945	26.063863
0.3536	503.15997	39.4332	25.589094
0.3553	503.04472	39.477284	25.766514
0.357	486.03297	39.241361	25.59692
0.3587	530.17238	39.523019	26.934599
0.3604	496.36183	39.057172	25.461819
0.3621	492.83545	38.919388	25.393813
0.3638	490.28224	39.031629	26.353106
0.3655	489.03087	38.744175	25.376034
0.3672	505.69084	38.717642	25.245825
0.3689	471.86229	38.405243	24.367998
0.3706	487.24804	38.439796	25.042402
0.3723	498.66793	38.29193	24.967141
0.374	522.29808	38.424064	25.734596
0.3757	493.2164	38.113527	24.493486
0.3774	492.69295	38.116559	25.120485
0.3791	502.9024	38.039828	25.046068
0.3808	447.89244	37.593302	23.497469
0.3825	480.34615	37.66167	24.051137
0.3842	504.25007	37.833734	24.896505
0.3859	484.44258	37.563691	24.725567
0.3876	523.19545	37.697893	25.575709
0.3893	515.25301	37.661189	25.473035
0.391	507.69864	37.616226	25.158391
0.3927	512.63023	37.426009	24.921022
0.3944	495.38981	37.06478	24.031469
0.3961	474.36618	37.032048	23.870953
0.3978	517.34634	37.096411	24.539319
0.3995	531.44434	37.115934	24.830996
0.4012	487.93805	36.698124	23.484765
0.4029	469.62321	36.568721	23.135168
0.4046	488.85483	36.648481	23.673955
0.4063	486.19949	36.38751	23.422044
0.408	502.71131	36.527866	24.042645
0.4097	499.37794	36.516111	24.115026
0.4114	465.56845	36.125042	22.814502
0.4131	512.64206	36.433518	24.198488
0.4148	486.11568	36.047949	23.446919
0.4165	448.27451	35.741099	22.113908
0.4182	467.39318	36.003906	23.257125
0.4199	468.13783	35.839827	23.030298
0.4216	460.24086	35.680333	22.713635
0.4233	488.5329	35.778016	23.223107
0.425	478.68212	35.553889	22.568132
0.4267	488.75722	35.640682	23.088028
0.4284	487.73057	35.479459	22.813993
0.4301	504.04445	35.595364	23.464035
0.4318	474.41098	35.265888	22.088786
0.4335	479.41654	35.218931	22.379021
0.4352	499.2034	35.318084	23.400255
0.4369	467.69567	35.0212	22.422973
0.4386	461.46351	34.990862	22.25009
0.4403	439.678	34.676874	21.257728
0.442	458.75917	34.77373	21.996016
0.4437	469.10378	34.787568	22.27424
0.4454	455.06396	34.671688	22.039806
0.4471	447.57733	34.546873	21.522698
0.4488	455.27186	34.473318	21.819847
0.4505	479.27856	34.547002	22.259519
0.4522	481.27005	34.484563	22.018421
0.4539	472.65522	34.359733	21.781206
0.4556	446.73049	34.164876	21.420268
0.4573	482.55027	34.23546	21.964329
0.459	484.39911	34.265097	22.202626
0.4607	435.56085	33.886066	20.806931
0.4624	441.08274	33.854317	20.968197
0.4641	427.36474	33.68391	20.867232
0.4658	488.56106	34.189337	22.51473
0.4675	460.28431	33.83427	21.477881
0.4692	471.29735	33.745012	21.660635
0.4709	479.92418	33.689422	21.844389
0.4726	492.32453	33.865099	22.474362
0.4743	486.68296	33.69046	21.759112
0.476	451.1957	33.372099	20.937833
0.4777	452.36338	33.33162	20.864535
0.4794	457.25088	33.317133	21.228162
0.4811	474.12684	33.43944	21.853055
0.4828	472.08591	33.308681	21.765353
0.4845	481.22871	33.243205	21.358773
0.4862	477.65552	33.213081	21.197642
0.4879	462.10845	33.06895	20.898115
0.4896	446.91194	32.780695	20.043765
0.4913	482.26072	32.979231	20.895415
0.493	459.30038	32.887676	21.146032
0.4947	441.44141	32.723745	20.418557
0.4964	466.70341	32.829167	20.823377
0.4981	470.83061	32.842148	21.008131
0.4998	453.5888	33.029956	20.736931
0.5015	467.87192	33.232607	21.171419
0.5032	488.48408	33.39232	21.739309
0.5049	470.07669	33.582437	22.164878
0.5066	439.99081	33.385822	21.646989
0.5083	456.32452	33.40533	20.934218
0.51	461.63582	33.474281	21.048406
0.5117	450.59542	33.458556	21.413289
0.5134	443.29383	33.49649	21.123794
0.5151	449.58516	33.596733	20.942156
0.5168	448.32549	33.535439	21.10516
0.5185	478.26089	33.648947	21.467383
0.5202	460.99163	33.594793	21.02004
0.5219	468.55306	33.649316	20.989249
0.5236	444.73581	33.434479	20.568634
0.5253	445.95118	33.527559	20.499128
0.527	476.62981	33.470211	21.080708
0.5287	501.35654	33.37737	21.346637
0.5304	448.64326	32.873509	20.015464
0.5321	454.59309	32.682147	20.047023
0.5338	445.84229	32.592628	20.26482
0.5355	480.43076	32.826962	21.855126
0.5372	484.64093	32.680008	21.678746
0.53889997	465.12512	32.379401	20.532381
0.5406	452.83222	32.269982	20.288313
0.54230003	458.27195	32.250648	20.42921
0.544	475.46048	32.22158	20.493123
0.54569997	444.11088	31.891635	19.604667
0.5474	449.01248	31.908058	20.155441
0.54910003	468.35503	32.082528	20.597173
0.5508	486.43032	32.346731	21.131699
0.55249997	477.21833	32.303002	20.687166
0.5542	454.29574	32.417076	20.516944
0.55590003	427.79419	32.249067	19.696036
0.5576	423.78839	32.289253	19.737674
0.55929997	443.1308	32.40152	20.340912
0.561	488.35165	32.676643	21.015478
0.56270003	471.1435	32.713956	20.875041
0.5644	463.46106	32.628297	21.012538
0.56609997	468.76246	32.60508	20.893213
0.5678	465.47055	32.667656	21.219723
0.56950003	483.74356	32.776362	21.304919
0.5712	431.75385	32.511246	20.36131
0.57289997	447.26452	32.567546	20.391061
0.5746	441.96838	32.564901	20.286636
0.57630003	476.07634	32.711765	20.823083
0.578	441.98788	32.322839	19.81367
0.57969997	468.435	32.30779	20.266872
0.5814	444.48831	31.87544	19.354257
0.58310003	451.74711	31.868595	19.972623
0.5848	446.22882	31.673931	19.705259
0.58649997	439.88108	31.465802	19.431742
0.5882	485.57113	31.627523	20.370696
0.58990003	498.77532	31.708355	20.98805
0.5916	501.3108	31.511189	20.79795
0.59329997	484.25153	31.348219	20.483521
0.595	475.10547	31.189275	19.759151
0.59670003	464.09908	31.033249	19.220447
0.5984	448.70889	31.002213	19.266859
0.60009997	454.06644	30.87738	19.303395
0.6018	452.66513	30.789416	19.437419
0.60350003	452.08742	30.83039	19.71104
0.6052	472.32743	30.848983	19.896873
0.60689997	449.01856	30.676735	19.398282
0.6086	430.71756	30.434575	18.57623
0.61030003	445.41565	30.480229	18.946166
0.612	455.20108	30.563074	19.421371
0.61369997	421.7943	30.164556	18.341096
0.6154	461.1408	30.362224	18.96292
0.61710003	455.19423	30.234471	18.858392
0.6188	478.23843	30.299182	19.506905
0.62049997	495.33071	30.282452	19.428164
0.6222	449.2704	30.12603	19.044651
0.62390003	437.40329	29.992079	18.75596
0.6256	457.56203	30.009707	18.951245
0.62729997	438.40612	29.865887	18.32949
0.629	439.50867	29.781977	18.461898
0.63070003	457.55071	29.781876	18.742412
0.6324	452.27067	29.759006	18.591198
0.63409997	444.18804	29.705061	18.687295
0.6358	444.88419	29.543419	18.348881
0.63750003	454.32473	29.520503	18.169655
0.6392	464.48768	29.617577	18.537562
0.64089997	428.87058	29.420827	18.218438
0.6426	424.41867	29.366314	18.414009
0.64430003	453.47597	29.486218	19.010417
0.646	452.45803	29.313329	18.352946
0.64769997	458.87082	29.323105	18.356125
0.6494	451.9196	29.294876	18.442124
0.65110003	429.59078	29.133932	17.912465
0.6528	445.13656	29.200874	18.31285
0.65449997	465.63988	29.136202	18.463062
0.6562	472.82996	29.092334	18.435324
0.65790003	447.69045	29.005267	18.027715
0.6596	425.24216	28.864041	17.521785
0.66129997	420.45002	28.797681	17.618643
0.663	423.26216	28.721779	17.862999
0.66470003	439.1763	28.737702	17.736155
0.6664	423.99892	28.641393	17.357291
0.66809997	446.48802	28.717869	17.85907
0.6698	460.60955	28.774668	18.425115
0.67150003	469.93484	28.794526	18.84407
0.6732	465.3711	28.670971	18.456481
0.67489997	471.42348	28.678405	18.330278
0.6766	455.4323	28.526322	17.975377
0.67830003	459.88607	28.499474	17.868863
0.68	453.08441	28.457018	17.841245
0.68169997	451.4731	28.348517	17.44122
0.6834	453.25953	28.332271	17.795133
0.68510003	460.77794	28.333905	18.090169
0.6868	430.01423	28.18372	17.200089
0.68849997	440.40234	28.141182	17.303729
0.6902	455.83361	28.15134	17.701153
0.69190003	456.07717	28.151098	17.631343
0.6936	454.61356	28.143607	17.966223
0.69529997	455.3609	28.147855	18.146926
0.697	429.74504	27.904131	17.143063
0.69870003	448.26228	27.966165	17.472724
0.7004	465.49457	28.050984	17.97372
0.70209997	457.92708	27.913037	17.597011
0.7038	433.12943	27.754678	17.158534
0.70550003	427.22212	27.654611	16.784128
0.7072	439.99477	27.762685	17.251295
0.70889997	441.98236	27.718731	17.455314
0.7106	429.79809	27.585774	16.997787
0.71230003	434.11569	27.557851	16.731759
0.714	434.75619	27.552502	17.155726
0.71569997	427.73842	27.493074	17.03812
0.7174	453.05572	27.541598	17.468712
0.71910003	459.24899	27.534644	17.725919
0.7208	456.83387	27.546455	17.599968
0.72249997	455.41474	27.411225	17.306121
0.7242	462.57906	27.456103	17.342855
0.72590003	434.71559	27.289361	16.947427
0.7276	453.95314	27.310259	17.007406
0.72929997	451.44485	27.321345	17.088468
0.731	437.66893	27.14923	16.786887
0.73270003	446.52957	27.173529	16.997695
0.7344	432.82014	27.069895	16.568498
0.73609997	445.60726	27.178979	17.046113
0.7378	441.6864	27.013224	16.714148
0.73950003	457.39548	27.041414	16.84156
0.7412	448.33196	26.976646	16.602813
0.74289997	437.20449	26.943655	16.502053
0.7446	444.66616	26.925645	16.807559
0.74630003	433.62767	26.825565	16.630533
0.748	425.7099	26.856718	16.54769
0.74969997	446.46051	26.849112	16.593538
0.7514	431.29725	26.718885	16.437359
0.75310003	424.18598	26.626724	16.162653
0.7548	448.33036	26.708174	16.412109
0.75649997	449.21904	26.724319	16.54854
0.7582	440.18204	26.638253	16.527648
0.75990003	434.28759	26.558127	16.278343
0.7616	431.29654	26.484948	16.145968
0.76329997	446.66923	26.589668	16.535046
0.765	433.52675	26.515816	16.574322
0.76670003	436.80605	26.468328	16.459567
0.7684	405.41271	26.284249	15.969137
0.77009997	455.4737	26.52656	16.991191
0.7718	447.07196	26.423186	16.8016
0.77350003	466.87508	26.430449	16.81737
0.7752	443.0745	26.322585	16.368993
0.77689997	409.91057	26.19868	15.821796
0.7786	426.86561	26.268716	16.37306
0.78030003	439.24929	26.205407	16.523096
0.782	470.66855	26.329149	17.019725
0.78369997	437.85513	26.148813	16.119162
0.7854	438.26413	26.164129	16.402517
0.78710003	443.37643	26.060457	16.291342
0.7888	469.06708	26.150727	16.522575
0.79049997	454.05128	26.027031	15.980304
0.7922	432.52565	25.963995	15.910307
0.79390003	424.84841	25.921468	15.756025
0.7956	432.34365	25.910026	15.824772
0.79729997	435.86665	25.860385	15.810729
0.799	451.44213	25.90049	15.985297
0.80070003	449.48835	25.881501	16.220495
0.8024	426.75414	25.784304	15.952424
0.80409997	427.2958	25.805644	15.995228
0.8058	427.77069	25.729831	15.853609
0.80750003	437.89449	25.777415	16.175495
0.8092	428.86183	25.725511	16.103236
0.81089997	421.47617	25.619861	15.71794
0.8126	439.35465	25.681538	16.271147
0.81430003	432.37887	25.737488	16.078396
0.816	418.42614	25.835024	15.779853
0.81769997	415.40657	25.960223	15.978662
0.8194	445.5382	26.125292	16.290895
0.82110003	463.0908	26.225727	16.734893
0.8228	451.31358	26.183152	16.542581
0.82449997	440.80809	26.191608	16.138639
0.8262	436.23425	26.213742	16.206495
0.82790003	432.77602	26.188603	16.378229
0.8296	457.92667	26.256821	16.593647
0.83129997	446.82128	26.243698	16.315484
0.833	456.64412	26.338835	16.794765
0.83470003	449.61909	26.246373	16.474908
0.8364	431.97212	26.125514	15.785569
0.83809997	427.09233	26.173663	16.111569
0.8398	445.46204	26.314185	16.646195
0.84150003	425.71729	26.159613	16.178397
0.8432	432.6524	26.140195	16.103712
0.84489997	453.38737	26.300687	16.482069
0.8466	469.23972	26.484205	16.95693
0.84830003	454.2786	26.575568	16.540465
0.85	427.80063	26.614076	16.2158
0.85169997	442.5408	26.884533	16.950046
0.8534	464.31298	27.048743	17.313412
0.85510003	445.86667	26.991745	17.206786
0.8568	471.21966	27.293823	17.746851
0.85849997	441.29235	27.427609	17.074477
0.8602	446.69459	27.706613	17.375
0.86190003	431.17517	27.672096	17.053461
0.8636	438.57087	27.886034	17.412232
0.86529997	449.51619	28.113165	17.702317
0.867	427.81032	28.115269	17.412797
0.86870003	438.36484	28.240923	17.489092
0.8704	432.53576	28.326412	17.537125
0.87209997	431.7704	28.507217	17.723018
0.8738	436.67738	28.57658	17.792512
0.87550003	445.70667	28.636029	17.750538
0.8772	434.67398	28.715821	17.66592
0.87889997	449.62937	28.932226	18.276671
0.8806	392.75576	28.746283	16.814472
0.88230003	393.32422	28.899387	17.004804
0.884	429.93938	29.164453	17.909783
0.88569997	426.27236	29.291335	18.115834
0.8874	445.98827	29.448816	18.500221
0.88910003	439.30024	29.449251	18.05249
0.8908	448.01673	29.52004	18.104806
0.89249997	422.79767	29.581847	17.975554
0.8942	411.19093	29.589658	17.636631
0.89590003	428.22091	29.799481	18.272089
0.8976	428.13013	29.867997	18.340195
0.89929997	464.49427	30.026255	18.728802
0.901	470.08871	30.270094	19.456572
0.90270003	450.99218	30.202849	19.046383
0.9044	416.42953	30.112776	18.181
0.90609997	419.66968	30.2439	18.318192
0.9078	447.82429	30.606696	19.177022
0.90950003	438.47714	30.915548	19.62834
0.9112	428.86727	31.188658	19.775192
0.91289997	428.03793	31.441728	19.62805
0.9146	433.01468	31.721524	19.613937
0.91630003	425.63803	31.862966	19.230326
0.918	408.1119	31.993777	18.909668
0.91969997	406.24249	32.263913	19.493311
0.9214	420.13577	32.50709	20.10742
0.92310003	426.58661	32.667504	20.170382
0.9248	415.49351	32.873546	20.263017
0.92649997	420.74831	33.076238	20.3243
0.9282	421.63085	33.265591	20.206601
0.92990003	433.11317	33.515672	20.501599
0.9316	477.60115	33.879986	21.621691
0.93329997	459.09822	33.989867	21.800773
0.935	463.96426	34.184258	21.558177
0.93670003	442.24011	34.246609	21.00765
0.9384	404.72477	34.182104	19.780943
0.94009997	407.69809	34.424728	20.225741
0.9418	436.89591	34.915656	21.514472
0.94350003	425.89493	34.883544	21.157838
0.9452	431.88208	35.071324	22.014607
0.94689997	449.59379	35.529168	22.81241
0.9486	414.47445	35.516299	21.63071
0.95030003	435.57669	35.801768	21.955027
0.952	437.33895	35.76658	21.897684
0.95369997	418.38636	36.040244	21.891495
0.9554	384.34073	36.042711	21.094396
0.95710003	430.80096	36.32619	21.918302
0.9588	423.49057	36.475681	22.51352
0.96049997	406.83149	36.593747	22.163762
0.9622	426.82329	36.910247	22.383189
0.96390003	418.60803	36.778679	21.805976
0.9656	404.0804	36.923914	21.80336
0.96729997	437.33969	37.485508	23.291054
0.969	429.65781	37.505732	22.953355
0.97070003	439.38065	37.733706	23.706307
0.9724	416.8119	37.852293	24.034082
0.97409997	396.81191	37.955089	22.823148
0.9758	422.99425	38.240946	23.440523
0.97750003	448.4283	38.579908	24.714819
0.9792	432.18708	38.52192	23.679121
0.98089997	439.77984	39.112109	24.762023
0.9826	395.98937	38.845272	23.182739
0.98430003	413.23883	38.926617	23.381859
0.986	380.90711	38.833928	22.602085
0.98769997	440.34871	39.459386	24.838083
0.9894	436.37728	39.603518	24.845643
0.99110003	378.47376	39.293029	22.763426
0.9928	415.67118	39.708223	24.004479
0.99449997	444.69884	40.100485	25.286285
0.9962	440.97692	39.988625	24.602674
0.99790003	432.24908	40.19989	24.691209
0.9996	402.25378	40.117526	23.900235
1.0013	403.64102	40.500413	24.637074
1.003	412.54552	40.819328	25.638315
1.0047	463.78468	41.319494	26.94768
1.0064	420.92675	41.122935	25.112321
1.0081	435.53313	41.449943	25.833627
1.0098	448.07684	41.872215	27.220051
1.0115	424.45035	41.633644	25.437743
1.0132	420.12575	41.934905	25.254709
1.0149	427.02726	42.228535	25.802212
1.0166	415.77621	42.184869	25.658413
1.0183	398.75497	42.301273	25.252986
1.02	394.29142	42.423388	25.072192
1.0217	425.9313	42.745535	25.723324
1.0234	424.56134	42.978957	26.115165
1.0251	377.2382	43.069784	24.922232
1.0268	403.36019	43.343533	25.545269
1.0285	449.48247	43.768646	27.0966
1.0302	411.08239	43.774645	26.695975
1.0319	415.18615	44.177764	27.571247
1.0336	377.31941	44.185813	25.902542
1.0353	392.36671	44.461294	26.570033
1.037	452.79823	45.243008	29.129939
1.0387	415.92077	45.227962	27.927602
1.0404	404.26486	45.097872	26.504973
1.0421	394.72946	45.549503	27.133789
1.0438	407.14787	45.724095	27.501383
1.0455	498.06809	46.946783	30.837648
1.0472	403.56664	46.451577	28.070426
1.0489	377.74475	46.376679	26.777209
1.0506	377.7631	46.75548	27.521992
1.0523	387.14749	47.17408	28.699041
1.054	373.50845	47.168067	27.423306
1.0557	406.69188	47.824713	29.206047
1.0574	435.95425	48.525836	30.127958
1.0591	398.93899	48.418205	28.526967
1.0608	419.04575	49.035932	30.634281
1.0625	397.66551	48.883002	29.36454
1.0642	424.77163	49.423499	30.360493
1.0659	443.01285	50.350563	33.276651
1.0676	437.18079	50.365486	32.161701
1.0693	396.64867	50.482799	30.412005
1.071	413.69612	50.783159	30.272135
1.0727	426.34674	51.123344	30.838838
1.0744	388.21812	50.908185	28.836287
1.0761	422.57559	51.729195	30.81573
1.0777999	375.73272	51.858484	29.582972
1.0795	386.88679	52.354381	30.217422
1.0812	387.76347	52.601718	30.456253
1.0829	356.27642	52.847577	30.053255
1.0846001	423.28099	53.750187	33.085166
1.0863	441.23558	54.323642	34.05033
1.088	409.32358	54.362425	33.400214
1.0897	410.24755	55.058693	34.730803
1.0913999	415.54003	55.637981	34.213204
1.0931	398.20483	55.432655	33.336123
1.0948	450.45147	56.308646	34.668223
1.0965	381.31008	56.032293	32.376675
1.0982001	409.42761	56.879892	33.184826
1.0999	433.9327	57.776488	35.709393
1.1016	424.66634	57.900244	35.03984
1.1033	429.86541	58.996081	36.440972
1.1049999	415.09111	58.641442	34.468265
1.1067	418.3897	59.273398	36.46328
1.1084	446.76882	60.388728	38.212961
1.1101	400.45623	60.373077	35.419173
1.1118001	405.42367	60.924221	35.430477
1.1135	410.04878	61.47771	36.533525
1.1152	418.90056	62.513476	38.498519
1.1169	419.3882	62.657976	37.985257
1.1185999	445.31514	63.679624	39.211998
1.1203	400.63688	63.675509	37.512766
1.122	401.83769	64.647236	38.426627
1.1237	466.08827	66.430913	43.003378
1.1254001	459.22328	66.259047	42.164016
1.1271	369.43525	65.868669	38.020217
1.1288	417.35459	67.111829	39.731255
1.1305	430.75938	68.359333	41.913684
1.1321999	371.53744	68.064022	38.439615
1.1339	416.67304	69.918179	41.846915
1.1356	388.52877	70.457188	40.758388
1.1373	379.6321	70.864537	41.821482
1.1390001	416.80827	72.365026	44.844916
1.1407	459.09204	73.342464	45.559481
1.1424	426.48445	74.033672	44.693039
1.1441	448.53773	75.52712	47.843438
1.1457999	392.83845	76.061541	47.287175
1.1475	355.95472	76.649303	45.220297
1.1492	540.41087	79.233026	53.014555
1.1509	448.1483	79.008122	48.716588
1.1526001	334.70386	79.19036	42.161722
1.1543	389.18683	82.074661	48.254769
1.156	400.9926	82.722339	48.507443
1.1577	457.84918	84.21499	51.993661
1.1593999	415.58368	85.463425	52.317633
1.1611	342.21973	85.921499	48.17984
1.1628	419.87296	88.518032	53.437814
1.1645	509.20554	91.73909	60.174837
1.1662001	377.25928	91.413563	52.913167
1.1679	298.32016	92.803558	50.951508
1.1696	411.62386	95.840235	59.976578
1.1713	495.82742	98.510648	66.650002
1.1729999	625.33936	102.78717	74.319445
1.1747	424.75547	102.14222	62.561283
1.1764	372.0254	103.42126	57.893339
1.1781	412.37897	107.49601	64.018331
1.1798001	357.6918	109.48947	61.632454
1.1815	367.29189	111.92297	63.776243
1.1832	427.75793	116.76195	76.243654
1.1849	406.22154	117.98595	71.672503
1.1865999	339.73363	121.35319	68.036266
1.1883	336.36627	123.64386	70.892012
1.19	386.89899	127.29112	76.235645
1.1917	461.29394	133.32692	85.423678
1.1934001	506.93313	137.12818	89.741696
1.1951	482.80343	141.47252	94.082564
1.1968	412.33762	143.22331	83.655169
1.1985	367.98825	150.50745	86.793149
1.2001999	333.37841	155.29353	87.331685
1.2019	506.19676	165.65297	110.34158
1.2036	458.33061	170.46611	102.38503
1.2053	258.25312	172.22224	81.210554
1.2070001	286.12339	178.21478	85.282753
1.2087	160.08543	184.09893	72.141748
1.2104	542.56011	208.11379	157.0701
1.2121	437.08005	204.02909	129.88771
1.2137999	504.20527	222.86177	140.11419
1.2155	429.12404	228.25263	126.96448
1.2172	494.66432	249.81909	159.98953
1.2189	492.20547	266.58059	181.69408
1.2206001	439.91672	271.93114	158.29322
1.2223	489.84233	288.3002	176.78309
1.224	592.93713	311.94241	230.42028
1.2257	599.27574	332.32486	230.4518
1.2273999	448.44369	335.77331	193.20227
1.2291	343.05244	347.90199	181.28442
1.2308	679.93695	407.62176	252.10822
1.2325	446.10999	418.74539	241.33729
1.2342001	412.68102	480.84037	266.48842
1.2359	268.15322	545.78225	269.7285
1.2376	79.006948	634.20535	179.55399
