# HDF: fcm_201403_060  
# /archive/messung/kmc/daten/2014/1Q/pilatus_201403_0944.tif
# Energy (eV)=8800 Distance (mm)=4.5326  Normalization factor =0.0005053858  Center=(499.5,536.2)  Binsize (nm-1)=0.0017
# Normalized by solid angle (1/distance^2), time (PilatusAcqTime_GRAL) and intensity (K4norm_mean)
# Detector quantum efficiency = 95.72% Monitor sensitivity (ph/s/A) = 4.538e+16 Sample thickness (mm) =1 Direct beam(photons * sr) = 0.528
# q(nm-1)	I_norm	err_pois	err_stdv
0	0	933.44681	0
0.0017	0	493.68341	0
0.0034	0	361.92942	16.105196
0.0051	166.54724	303.74998	116.29355
0.0068	147.5741	256.56767	95.080047
0.0085	156.04563	229.98278	86.920046
0.0102	143.54992	219.13271	78.773903
0.0119	121.72644	215.56046	72.486868
0.0136	55.518251	207.63215	47.930361
0.0153	73.593452	201.53058	53.402549
0.017	280.86246	202.35909	106.10807
0.0187	97.066145	189.64856	63.749933
0.0204	39.08784	181.12462	36.186647
0.0221	185.44114	171.86793	363.21168
0.0238	8814.7372	383.45388	3977.3582
0.0255	73676.735	1312.9115	9912.4558
0.0272	231376.6	2509.0791	11097.728
0.0289	297976.11	2344.5326	5049.0746
0.0306	294469.93	2002.0147	3133.5353
0.0323	278364.99	1835.7701	2581.7009
0.034	267903.52	1740.4284	2449.4701
0.0357	253073.02	1644.8035	2411.0957
0.0374	239898.56	1558.5303	2457.602
0.0391	226871.25	1467.0166	2226.9437
0.0408	213607.28	1394.1952	2134.5053
0.0425	199332.33	1310.4092	1850.9824
0.0442	188344.73	1252.8122	1768.9786
0.0459	175598.57	1182.5218	1741.53
0.0476	162352.35	1112.367	1713.4307
0.0493	150116.04	1051.152	1578.6057
0.051	138399.5	985.06424	1451.4784
0.0527	124307.25	917.90912	1396.6031
0.0544	112567.69	855.89809	1253.9904
0.0561	102701.61	802.15634	1191.4409
0.0578	93199.748	754.53657	1200.6917
0.0595	83928.513	707.67596	1097.6045
0.0612	74204.415	652.90585	967.69379
0.0629	67044.629	610.27394	919.85358
0.0646	58747.229	563.01359	779.67312
0.0663	52355.417	525.29507	757.12975
0.068	45310.985	480.28989	714.039
0.0697	39897.993	446.58227	642.95133
0.0714	34368.761	406.70064	604.55974
0.0731	29890.689	378.25443	557.09565
0.0748	24650.345	334.47769	494.86436
0.0765	21491.481	311.28353	447.66586
0.0782	17965.176	280.2789	390.93454
0.0799	14816.835	252.21136	333.90926
0.0816	12159.984	225.12485	302.77289
0.0833	10472.265	206.28589	272.67674
0.085	8549.1397	185.04567	241.34624
0.0867	6807.2336	165.20579	210.03408
0.0884	5503.5262	147.33103	185.8135
0.0901	4662.7219	135.28647	163.59987
0.0918	3627.32	119.15772	132.79553
0.0935	3179.4185	112.25132	122.94603
0.0952	2785.1051	105.2547	116.44844
0.0969	2387.088	98.575107	108.8285
0.0986	2258.6582	96.903493	111.99804
0.1003	2163.076	94.439241	100.03437
0.102	2082.5445	91.821926	94.113007
0.1037	2196.7379	92.149848	97.550093
0.1054	2407.7169	94.811707	101.24163
0.1071	2425.8321	94.678347	100.54858
0.1088	2439.797	93.683252	100.30299
0.1105	2721.9399	96.798903	106.59573
0.1122	2844.7282	96.774733	104.54414
0.1139	3161.1028	102.1159	113.13949
0.1156	3104.7431	99.005157	108.34812
0.1173	3147.1665	98.477498	104.89978
0.119	3469.9166	102.77245	115.99463
0.1207	3536.8701	103.06731	121.44195
0.1224	3613.7337	103.45231	123.8821
0.1241	3493.0631	100.76136	118.17698
0.1258	3221.2297	96.262672	108.4349
0.1275	3298.6561	96.663237	107.53431
0.1292	3268.389	96.100381	105.57826
0.1309	3093.4606	92.732599	103.02258
0.1326	3180.7786	93.884161	99.901507
0.1343	2812.3837	87.971037	95.168715
0.136	2758.5309	87.679079	92.920365
0.1377	2611.9196	84.634383	85.733633
0.1394	2515.2815	84.660448	90.485052
0.1411	2332.3821	82.356246	86.978824
0.1428	2301.5269	83.080243	86.390272
0.1445	2124.9162	80.557184	85.774137
0.1462	1921.6499	77.664342	78.95976
0.1479	1729.8075	75.797494	76.051977
0.1496	1714.871	76.487046	76.008885
0.1513	1532.1349	73.810165	72.461187
0.153	1446.1885	73.138444	70.006259
0.1547	1198.4195	69.310169	60.947653
0.1564	1087.443	68.794769	59.527779
0.1581	1054.221	68.087453	60.049047
0.1598	1167.4402	69.492938	62.669457
0.1615	1145.5997	68.513654	59.287353
0.1632	1080.9295	67.923635	57.733453
0.1649	874.90088	65.89662	55.03312
0.1666	850.96081	65.579128	53.354971
0.1683	871.99693	64.840469	53.147815
0.17	944.0353	65.118967	55.735715
0.1717	920.34645	63.621785	54.268895
0.1734	939.5778	63.221861	53.801492
0.1751	921.82051	62.651192	53.845207
0.1768	956.46447	62.32512	53.507522
0.1785	998.61377	62.338823	54.738988
0.1802	950.68299	60.923623	52.949866
0.1819	1033.0894	61.55262	53.934881
0.1836	999.10829	60.392537	50.517428
0.1853	958.61432	59.856552	48.517037
0.187	970.10393	59.508511	50.199756
0.1887	1043.4368	59.850523	51.74885
0.1904	1049.3038	59.945611	51.435549
0.1921	1013.4886	59.685098	51.372035
0.1938	1053.0461	60.732742	55.013469
0.1955	1051.6304	60.722695	52.390463
0.1972	1030.309	61.144419	52.490682
0.1989	995.48402	60.388206	50.677161
0.2006	1025.2789	60.868195	53.191906
0.2023	986.01843	59.983495	50.626997
0.204	984.07232	60.240849	50.211911
0.2057	967.91929	60.518348	52.398605
0.2074	882.79606	58.837759	48.629296
0.2091	931.78116	59.601627	48.632079
0.2108	820.22676	58.39436	45.002354
0.2125	760.90108	57.781325	44.287645
0.2142	814.63068	58.34773	46.713099
0.2159	791.33415	57.955226	46.172846
0.2176	779.30185	57.833966	44.816789
0.2193	785.25358	57.311762	43.770272
0.221	765.68215	56.40789	43.785848
0.2227	719.50335	55.545086	43.970282
0.2244	756.38331	54.873085	41.856684
0.2261	782.17543	54.70176	43.679043
0.2278	797.33471	54.97062	44.962285
0.2295	647.72603	52.522323	38.041343
0.2312	643.37237	52.553418	38.495632
0.2329	726.66106	53.072762	40.836166
0.2346	773.71455	53.216386	41.87411
0.2363	738.73818	52.483967	41.266699
0.238	721.62637	52.116805	40.487292
0.2397	751.15933	52.333296	41.631513
0.2414	734.74341	51.390714	39.208171
0.2431	731.66297	51.010799	38.853466
0.2448	759.24274	51.11477	38.877286
0.2465	715.5317	50.494198	37.943217
0.2482	771.19709	50.801738	39.183769
0.2499	780.35139	50.641606	39.711719
0.2516	782.91927	50.875288	41.397043
0.2533	673.75674	49.592264	38.098178
0.255	657.8923	49.08782	36.640674
0.2567	701.27141	49.162826	38.070297
0.2584	698.03888	48.85195	36.575465
0.2601	687.23055	48.500422	35.400882
0.2618	672.07964	48.496386	36.49394
0.2635	690.07341	48.507753	37.094411
0.2652	696.7172	48.078698	36.585958
0.2669	663.17314	48.091863	37.397525
0.2686	631.56203	47.336509	34.651779
0.2703	645.59853	46.99421	33.921335
0.272	719.24547	47.417444	35.673111
0.2737	735.32579	47.481419	36.273177
0.2754	707.98956	47.04046	36.003764
0.2771	719.18491	46.950804	35.643744
0.2788	617.51156	45.813697	32.355612
0.2805	641.82755	46.102094	33.058922
0.2822	682.3681	46.241325	33.903357
0.2839	606.86144	45.407187	31.907234
0.2856	585.90305	45.155491	31.363915
0.2873	610.25077	45.291537	32.371537
0.289	614.80392	45.176528	32.47062
0.2907	603.84008	44.792788	31.789103
0.2924	613.2075	44.76386	31.783652
0.2941	634.71171	44.728651	32.159704
0.2958	679.13157	45.108271	34.017562
0.2975	594.1468	44.149332	31.763802
0.2992	596.61968	44.061268	31.504649
0.3009	579.62876	43.637986	29.79931
0.3026	587.80829	43.836366	31.479661
0.3043	641.89495	43.986281	32.567938
0.306	653.23843	43.779291	32.206367
0.3077	696.98905	44.081926	32.79238
0.3094	665.72333	43.745472	32.31953
0.3111	641.74564	43.238858	31.455443
0.3128	608.75359	42.924323	30.307286
0.3145	547.97602	42.546981	29.421052
0.3162	578.26945	42.695864	30.630692
0.3179	609.70984	42.561937	30.386424
0.3196	632.86744	42.626354	30.947362
0.3213	614.18026	42.291293	29.80834
0.323	641.68019	42.329866	30.265148
0.3247	634.71578	42.198615	30.514447
0.3264	655.36935	42.259991	31.083279
0.3281	619.4283	41.909731	30.24361
0.3298	645.21882	41.802307	29.881825
0.3315	649.50726	41.798655	30.268697
0.3332	590.52472	41.320858	29.077351
0.3349	575.29468	41.299453	28.814612
0.3366	605.08976	41.294352	29.515298
0.3383	613.22383	41.073283	29.292891
0.34	584.34938	40.875119	29.298733
0.3417	623.19462	40.929699	29.411995
0.3434	659.69117	41.099402	29.948947
0.3451	681.03133	41.153205	30.666832
0.3468	621.89434	40.527955	29.027951
0.3485	626.57852	40.574331	28.831933
0.3502	622.34322	40.42913	29.312864
0.3519	610.73007	40.249048	29.428011
0.3536	618.91391	40.254993	29.660498
0.3553	586.45878	39.790539	28.019922
0.357	595.99797	39.801135	28.171965
0.3587	649.0838	39.948566	29.076422
0.3604	630.99522	39.760881	28.59904
0.3621	574.99429	39.425109	27.848243
0.3638	563.34311	39.337403	27.522077
0.3655	595.75844	39.19553	27.256238
0.3672	618.74838	39.225925	27.766845
0.3689	602.63651	39.069165	27.591617
0.3706	621.75494	39.107437	28.054826
0.3723	630.60566	38.976558	27.892929
0.374	620.59949	38.771981	27.51441
0.3757	647.64123	39.043543	28.448806
0.3774	629.50813	38.765167	27.631772
0.3791	615.69612	38.590669	27.412861
0.3808	591.0834	38.280751	27.089995
0.3825	568.54987	38.036437	26.191032
0.3842	590.92701	38.193709	26.540361
0.3859	610.03122	38.254182	27.327248
0.3876	610.33356	38.132539	27.583465
0.3893	632.46415	38.125813	27.950328
0.391	656.28214	38.240729	28.414788
0.3927	639.58683	37.916442	26.956214
0.3944	586.38713	37.530111	25.935871
0.3961	594.21798	37.554738	26.492703
0.3978	650.77593	38.019435	28.530954
0.3995	630.73003	37.497386	27.224588
0.4012	614.19423	37.410937	26.59179
0.4029	559.28436	37.053597	25.885259
0.4046	593.04419	37.112769	26.048026
0.4063	599.52069	36.969348	25.968842
0.408	613.17943	36.933351	26.169646
0.4097	579.69681	36.708176	25.416396
0.4114	575.64348	36.794404	25.586872
0.4131	574.0917	36.626732	25.218143
0.4148	563.32046	36.422377	25.317645
0.4165	554.44686	36.374951	24.994833
0.4182	541.07082	36.132041	24.070433
0.4199	561.83237	36.30198	25.462346
0.4216	615.11256	36.419856	25.771293
0.4233	603.03273	36.242421	25.271713
0.425	583.39873	36.052804	25.033532
0.4267	589.97872	36.173537	25.989854
0.4284	573.89463	35.9798	25.430549
0.4301	606.06199	35.964346	25.349558
0.4318	596.71356	35.844926	24.731756
0.4335	558.54117	35.498867	23.877637
0.4352	601.21883	35.747523	25.615975
0.4369	585.4593	35.627214	25.620112
0.4386	564.76586	35.441022	24.758671
0.4403	544.12614	35.206007	23.988186
0.442	575.78312	35.213945	23.987452
0.4437	568.90493	35.1787	24.355018
0.4454	567.25744	35.024985	23.761682
0.4471	572.2436	35.081069	24.229708
0.4488	594.96978	35.063747	24.215891
0.4505	566.11662	34.800927	23.455375
0.4522	561.44323	34.869616	23.969146
0.4539	597.45027	34.977353	25.052205
0.4556	589.57743	34.778346	24.462812
0.4573	555.20892	34.536832	23.543871
0.459	601.08037	34.695755	24.296366
0.4607	628.68692	34.91455	25.29719
0.4624	578.71709	34.44386	24.407143
0.4641	607.30536	34.655884	25.002801
0.4658	574.93691	34.45914	24.272044
0.4675	558.80028	34.228271	23.357826
0.4692	577.00338	34.208373	24.037552
0.4709	590.44151	34.299281	24.851804
0.4726	575.51098	34.129711	24.038103
0.4743	576.69025	34.08147	23.777247
0.476	581.24712	33.999683	23.681347
0.4777	571.32167	33.846982	23.460159
0.4794	547.30507	33.732928	23.077484
0.4811	527.85128	33.481688	22.356422
0.4828	554.694	33.566055	22.85612
0.4845	563.2793	33.58877	23.065187
0.4862	571.59759	33.680865	23.474918
0.4879	583.31842	33.678698	24.044384
0.4896	560.72923	33.366488	23.136424
0.4913	562.73377	33.334099	23.086012
0.493	609.89259	33.651694	24.159111
0.4947	609.894	33.435932	23.700654
0.4964	599.95777	33.285844	23.130035
0.4981	566.25773	33.18331	22.612464
0.4998	575.04235	33.574167	23.345846
0.5015	573.60214	33.716158	23.54633
0.5032	554.34301	33.614845	22.994199
0.5049	564.46529	33.841833	23.392309
0.5066	577.0699	33.885198	23.514705
0.5083	571.64565	34.031059	23.661882
0.51	565.92096	33.9398	23.419744
0.5117	548.14615	33.844767	23.391673
0.5134	544.50532	33.960657	23.443113
0.5151	571.03025	34.013969	23.111535
0.5168	594.38197	34.120464	23.711708
0.5185	594.74068	34.197961	24.008175
0.5202	560.75541	33.96641	23.213653
0.5219	557.86425	34.12028	24.036115
0.5236	575.6669	34.069802	23.725619
0.5253	556.95872	33.899955	22.753148
0.527	559.6367	33.984366	23.721227
0.5287	592.02785	33.884494	24.177478
0.5304	606.4575	33.63795	23.716119
0.5321	608.2083	33.464333	23.733049
0.5338	579.28638	33.162892	23.101737
0.5355	581.58772	33.146532	23.15014
0.5372	585.04752	33.030185	23.010283
0.53889997	591.72133	32.918221	22.951967
0.5406	572.98349	32.729002	22.46298
0.54230003	570.6703	32.719615	22.320043
0.544	575.30429	32.494098	22.055891
0.54569997	608.89134	32.723046	23.522036
0.5474	579.67635	32.442112	22.852222
0.54910003	593.94306	32.649287	22.99362
0.5508	563.33002	32.593627	22.477143
0.55249997	576.83921	32.695902	22.731742
0.5542	605.87671	33.083888	23.479349
0.55590003	533.48169	32.695733	22.143588
0.5576	564.73473	32.898388	22.748209
0.55929997	601.2078	33.173599	23.731567
0.561	594.8802	33.114353	23.575097
0.56270003	571.08102	33.159199	23.389996
0.5644	550.29777	32.87804	22.645144
0.56609997	567.3213	33.186602	23.717877
0.5678	576.85873	33.080582	22.782965
0.56950003	570.07376	33.071608	22.855982
0.5712	572.31301	33.010744	22.266923
0.57289997	568.06898	33.006369	22.492595
0.5746	556.89533	33.043122	22.617961
0.57630003	553.89178	32.978664	22.72678
0.578	581.42161	33.001559	22.908363
0.57969997	584.52192	32.764992	22.845522
0.5814	572.61629	32.539504	22.744843
0.58310003	580.20465	32.433495	22.548063
0.5848	581.86164	32.317948	22.753531
0.58649997	581.96648	32.174196	22.796117
0.5882	573.5493	32.01782	22.471595
0.58990003	552.03306	31.803573	21.570986
0.5916	548.85732	31.705624	21.705143
0.59329997	579.53753	31.729312	22.298632
0.595	554.53065	31.473786	21.35372
0.59670003	572.63215	31.569239	21.885306
0.5984	562.35796	31.393739	21.737206
0.60009997	556.67372	31.272859	21.601145
0.6018	559.3004	31.305119	21.705829
0.60350003	562.10522	31.208925	21.504273
0.6052	568.74795	31.188691	21.949253
0.60689997	595.50363	31.370125	22.36768
0.6086	543.53586	30.8537	21.081427
0.61030003	557.49876	30.911022	21.12847
0.612	567.13915	30.886694	21.174554
0.61369997	577.83208	30.899333	21.57241
0.6154	559.8635	30.735242	21.061921
0.61710003	586.79561	30.83047	21.656233
0.6188	560.95844	30.587282	21.024811
0.62049997	546.88149	30.54194	21.252987
0.6222	539.2726	30.440776	20.727199
0.62390003	527.20504	30.220499	19.953832
0.6256	573.76147	30.471923	20.965163
0.62729997	562.00173	30.300895	20.592885
0.629	557.97064	30.214293	20.620818
0.63070003	559.65044	30.116378	20.417632
0.6324	569.76995	30.263692	20.9911
0.63409997	581.06396	30.163378	20.777974
0.6358	587.56097	30.134184	20.943993
0.63750003	541.11805	29.942174	20.583986
0.6392	550.84636	29.945174	20.514898
0.64089997	567.60276	29.959292	20.852592
0.6426	575.42005	29.878408	20.931195
0.64430003	565.62039	29.882875	21.012759
0.646	549.39612	29.752261	20.610055
0.64769997	547.20771	29.675957	20.757799
0.6494	550.05098	29.627145	20.528199
0.65110003	566.42255	29.69142	20.647528
0.6528	558.71707	29.525054	20.185119
0.65449997	536.63973	29.361482	19.6234
0.6562	553.70384	29.493712	20.515234
0.65790003	550.22441	29.418778	20.532935
0.6596	565.42072	29.434293	20.302083
0.66129997	575.27787	29.478007	20.974983
0.663	586.0168	29.40486	20.898835
0.66470003	585.23764	29.373362	20.797227
0.6664	562.95686	29.179845	19.964949
0.66809997	529.31514	28.991817	19.33412
0.6698	551.94254	29.102363	19.943989
0.67150003	549.83362	29.00578	19.842575
0.6732	556.89981	29.032104	20.05431
0.67489997	558.23134	28.984212	20.24011
0.6766	553.78015	28.852056	19.973081
0.67830003	539.09269	28.750164	19.468614
0.68	587.08185	28.997453	20.407622
0.68169997	583.76128	28.893663	20.091953
0.6834	538.0415	28.562929	19.209029
0.68510003	559.21147	28.683925	19.588085
0.6868	535.87402	28.590908	19.340162
0.68849997	548.68118	28.611918	19.615738
0.6902	552.06538	28.495108	19.537924
0.69190003	551.42615	28.520176	19.782457
0.6936	564.64722	28.644624	20.177866
0.69529997	552.10978	28.433552	19.507357
0.697	536.72442	28.318532	19.296626
0.69870003	537.14286	28.216117	18.847485
0.7004	553.34283	28.333648	19.35226
0.70209997	571.31141	28.355303	19.909706
0.7038	566.30614	28.194484	19.436165
0.70550003	566.6395	28.208395	19.3163
0.7072	571.47016	28.241975	19.506065
0.70889997	548.85378	28.028535	19.100977
0.7106	557.69218	28.050952	19.267451
0.71230003	562.23	27.970057	18.985761
0.714	564.15423	27.990407	19.394893
0.71569997	599.8094	28.147572	19.866376
0.7174	560.10445	27.912229	19.343057
0.71910003	564.10275	27.825857	19.044412
0.7208	571.50123	27.94792	19.692809
0.72249997	580.55369	27.937405	19.590163
0.7242	555.71128	27.765325	19.173649
0.72590003	551.53483	27.668559	18.872396
0.7276	576.24945	27.765081	19.163228
0.72929997	574.29415	27.735064	19.285982
0.731	554.97953	27.525505	18.86562
0.73270003	562.74409	27.645628	19.245813
0.7344	513.64548	27.402067	18.399351
0.73609997	531.10864	27.439441	18.524012
0.7378	570.6907	27.491955	19.088217
0.73950003	584.64759	27.62274	19.782418
0.7412	532.88167	27.255657	18.411996
0.74289997	526.00518	27.2356	18.105364
0.7446	547.24173	27.244457	18.123617
0.74630003	524.43064	27.122156	18.188192
0.748	537.26115	27.270226	18.674744
0.74969997	553.73203	27.259748	18.729495
0.7514	547.92454	27.084157	18.477203
0.75310003	551.59144	27.09402	18.476875
0.7548	555.74761	27.077052	18.407313
0.75649997	583.48406	27.262002	19.161802
0.7582	575.86963	27.091639	18.744374
0.75990003	560.01971	27.098741	19.016153
0.7616	550.11832	26.948242	18.664107
0.76329997	539.20261	26.912881	18.282348
0.765	551.29783	26.961866	18.750429
0.76670003	570.66287	26.870824	18.573915
0.7684	568.4577	26.938311	18.774938
0.77009997	523.70944	26.67237	18.005451
0.7718	552.59622	26.75564	18.206699
0.77350003	564.80991	26.723959	18.269885
0.7752	547.23483	26.714671	18.362745
0.77689997	547.21756	26.665266	18.221971
0.7786	555.01279	26.633605	18.185131
0.78030003	545.91987	26.564185	18.103249
0.782	551.58731	26.580415	18.15863
0.78369997	549.57291	26.582401	18.286155
0.7854	557.03998	26.46991	17.900701
0.78710003	557.5289	26.446556	17.861052
0.7888	530.77882	26.335806	17.701433
0.79049997	526.57229	26.338019	17.867704
0.7922	552.75125	26.413935	18.050174
0.79390003	551.89466	26.358137	18.00831
0.7956	542.31849	26.264139	17.730247
0.79729997	540.02729	26.265177	17.978674
0.799	566.21156	26.36614	18.401802
0.80070003	561.29085	26.280439	18.275515
0.8024	535.8443	26.093051	17.573751
0.80409997	530.06535	26.07564	17.461204
0.8058	568.87002	26.153544	17.818262
0.80750003	554.87156	26.139762	17.990497
0.8092	541.2821	26.089313	17.889646
0.81089997	538.61391	26.032904	17.748745
0.8126	555.64553	26.021005	17.729832
0.81430003	546.24786	26.05568	17.748942
0.816	546.94712	26.261272	17.861783
0.81769997	540.17059	26.312131	17.746734
0.8194	535.44142	26.433627	18.160657
0.82110003	560.30942	26.559228	18.428172
0.8228	566.97144	26.584039	18.551853
0.82449997	571.8511	26.62673	18.46772
0.8262	553.64428	26.657611	18.440307
0.82790003	544.20056	26.547567	18.11092
0.8296	528.99317	26.487834	17.997421
0.83129997	535.48977	26.573821	18.101924
0.833	553.59039	26.710779	18.628631
0.83470003	552.4442	26.576814	18.168506
0.8364	547.95998	26.619981	18.446408
0.83809997	555.66257	26.674655	18.51445
0.8398	544.57101	26.599169	18.116966
0.84150003	535.96607	26.53627	18.016958
0.8432	520.88428	26.43232	17.774011
0.84489997	558.23122	26.708266	18.420486
0.8466	547.80371	26.730519	18.46123
0.84830003	571.86496	27.070817	18.977128
0.85	556.73977	27.11993	18.756555
0.85169997	535.57315	27.095404	18.071943
0.8534	537.89785	27.31273	18.844275
0.85510003	542.73352	27.331529	18.800387
0.8568	550.47273	27.486384	18.492406
0.85849997	521.74358	27.679559	18.645438
0.8602	569.62288	28.194983	19.808776
0.86190003	544.28778	28.063194	19.14455
0.8636	551.25797	28.317726	19.403239
0.86529997	555.03791	28.534594	19.587594
0.867	541.66912	28.502706	19.387727
0.86870003	541.57123	28.599339	19.262833
0.8704	565.84182	28.844442	19.818135
0.87209997	554.55855	28.939996	20.030868
0.8738	552.27124	28.980766	19.818812
0.87550003	550.41506	29.01565	19.672827
0.8772	565.86611	29.269392	19.875172
0.87889997	543.62449	29.285655	20.113856
0.8806	532.41121	29.358712	20.163536
0.88230003	534.68484	29.387224	19.61446
0.884	542.52323	29.530785	19.806214
0.88569997	528.32068	29.669942	19.990977
0.8874	535.843	29.704227	20.371116
0.88910003	565.49956	29.993703	20.842118
0.8908	548.33184	29.892277	20.288693
0.89249997	571.95825	30.150021	20.641717
0.8942	526.40535	30.084269	20.492048
0.89590003	555.91738	30.224048	20.527252
0.8976	560.76195	30.396186	20.764381
0.89929997	526.50902	30.241452	20.108484
0.901	544.77492	30.488917	20.501337
0.90270003	545.6275	30.483707	20.720029
0.9044	561.78555	30.765167	21.525548
0.90609997	560.0999	30.931267	21.619247
0.9078	539.41702	30.905551	21.092089
0.90950003	516.21626	31.168365	20.768413
0.9112	555.83995	31.719914	22.146821
0.91289997	555.92127	32.026665	22.159084
0.9146	556.10101	32.189384	22.009641
0.91630003	549.21562	32.369484	22.134197
0.918	533.74893	32.553624	22.092937
0.91969997	556.46403	32.882249	22.61966
0.9214	527.30116	32.831668	22.007887
0.92310003	538.48312	33.174461	22.557677
0.9248	530.471	33.392976	22.816953
0.92649997	551.23739	33.705385	23.142851
0.9282	549.48829	33.815076	22.985165
0.92990003	546.66914	34.096574	23.689382
0.9316	547.27541	34.151729	23.616061
0.93329997	538.76087	34.230516	23.384503
0.935	563.36038	34.718082	24.252002
0.93670003	532.89688	34.830032	23.996808
0.9384	497.04741	34.603947	22.704974
0.94009997	521.74494	34.997181	23.651959
0.9418	534.63489	35.311997	23.989352
0.94350003	525.42327	35.36417	24.181884
0.9452	533.34918	35.559871	24.133743
0.94689997	554.9271	35.891608	24.496213
0.9486	546.78932	36.214893	25.102052
0.95030003	521.78627	36.111088	24.222234
0.952	532.991	36.34383	24.956171
0.95369997	509.80964	36.294428	23.624096
0.9554	547.39547	36.836744	25.190967
0.95710003	535.4584	36.833416	25.226445
0.9588	518.13683	36.890779	24.776416
0.96049997	550.03624	37.346196	25.619058
0.9622	528.4944	37.450255	25.788543
0.96390003	531.85289	37.541385	25.617165
0.9656	555.46933	37.721651	25.723461
0.96729997	544.66424	37.942222	26.274289
0.969	523.97162	37.961815	25.345469
0.97070003	505.80685	37.940918	25.049299
0.9724	537.61934	38.379256	26.099397
0.97409997	526.30103	38.50914	25.780531
0.9758	545.02985	38.908614	26.477533
0.97750003	551.68856	38.978522	26.310591
0.9792	549.76533	39.184989	26.51163
0.98089997	516.77582	39.216287	26.149895
0.9826	514.90495	39.561166	27.07159
0.98430003	538.9445	39.652454	27.216085
0.986	540.6986	39.937774	27.920232
0.98769997	538.7463	39.902739	27.475399
0.9894	548.1412	40.157598	27.359583
0.99110003	533.78968	40.085762	26.699802
0.9928	565.39224	40.478926	27.885222
0.99449997	576.95184	40.790679	28.851603
0.9962	538.29058	40.65607	28.074949
0.99790003	531.39004	40.681615	28.037813
0.9996	564.94843	41.175676	29.574563
1.0013	551.81016	41.221897	28.080022
1.003	531.10982	41.406305	27.96972
1.0047	515.8007	41.384645	27.587642
1.0064	524.53596	41.671981	27.617022
1.0081	520.1895	41.7879	27.587159
1.0098	540.81041	42.086791	28.119829
1.0115	571.8475	42.641483	29.613387
1.0132	552.26074	42.63992	29.0763
1.0149	540.37934	42.856714	28.882246
1.0166	516.33868	42.63357	27.921476
1.0183	542.72538	43.161907	29.578858
1.02	515.71047	43.06683	28.7712
1.0217	517.81887	43.369848	29.677262
1.0234	569.47994	44.001212	31.125741
1.0251	559.32835	44.154705	30.247601
1.0268	555.69825	44.266887	30.059008
1.0285	548.10847	44.391092	30.300156
1.0302	523.63727	44.338871	29.691412
1.0319	550.07952	44.893371	30.471914
1.0336	509.87073	44.865239	29.668411
1.0353	553.75043	45.478787	30.677247
1.037	487.05757	45.150685	28.927647
1.0387	509.08036	45.626391	29.584551
1.0404	513.1331	45.861126	30.527673
1.0421	489.03529	46.151278	31.361468
1.0438	532.52137	46.625787	31.780626
1.0455	539.33829	47.003626	32.047087
1.0472	543.61087	47.300508	32.194076
1.0489	493.40086	46.8312	30.170049
1.0506	515.75075	47.653503	31.431004
1.0523	478.31506	47.446196	30.389067
1.054	496.56852	47.957207	31.042863
1.0557	535.00858	48.5749	32.878151
1.0574	576.69355	49.394793	35.383449
1.0591	551.61444	49.661169	35.049321
1.0608	514.85046	49.336133	32.898333
1.0625	552.90905	49.998707	35.054138
1.0642	530.36875	50.224482	35.475224
1.0659	495.33954	50.4026	34.229635
1.0676	535.93717	50.902915	33.889746
1.0693	549.17127	51.295644	35.156325
1.071	535.7385	51.653061	35.186705
1.0727	531.9565	51.772209	34.75074
1.0744	496.3376	51.795395	33.909457
1.0761	506.97604	52.509847	35.44309
1.0777999	542.06858	53.421025	37.150561
1.0795	535.64598	53.341014	36.190929
1.0812	506.31664	53.46872	35.702887
1.0829	505.35969	53.878226	35.636388
1.0846001	529.07024	54.414545	36.930535
1.0863	498.57372	54.657964	37.125451
1.088	534.37342	55.188136	37.064938
1.0897	515.67468	55.569171	37.123332
1.0913999	477.06467	55.763597	35.41565
1.0931	490.14294	55.924919	35.753663
1.0948	493.99645	56.564491	37.357183
1.0965	525.02163	57.587725	39.6281
1.0982001	491.62449	57.452209	37.258508
1.0999	534.22718	58.552789	39.966942
1.1016	524.54192	58.737043	39.284684
1.1033	506.33309	59.269684	38.315171
1.1049999	529.69396	59.550781	39.705652
1.1067	515.61005	60.034304	39.681379
1.1084	439.04108	59.62147	35.113108
1.1101	553.6779	61.451252	40.546372
1.1118001	552.46601	62.324825	43.267057
1.1135	544.49169	62.872828	43.145815
1.1152	539.48719	63.350872	42.280203
1.1169	500.06812	63.234031	41.156923
1.1185999	537.19075	64.587159	44.987752
1.1203	496.28954	64.805464	43.657117
1.122	487.73407	65.828163	44.984542
1.1237	551.3703	66.94343	46.719559
1.1254001	574.09335	67.162539	47.646471
1.1271	509.40941	67.066529	43.96203
1.1288	558.19555	68.08617	44.87979
1.1305	556.59694	69.521221	47.547468
1.1321999	498.74667	69.210445	45.485565
1.1339	613.20779	71.951949	53.121979
1.1356	642.84778	73.252646	53.991819
1.1373	565.5902	72.121641	48.332853
1.1390001	466.33359	72.201862	44.832662
1.1407	507.47262	73.676621	48.0279
1.1424	517.70187	75.168615	50.32717
1.1441	537.22683	76.404069	51.629234
1.1457999	527.41108	76.611464	49.811597
1.1475	509.66658	78.029672	51.036049
1.1492	569.55318	79.287151	53.680332
1.1509	526.11422	79.711636	51.386438
1.1526001	464.88244	81.01029	52.203368
1.1543	503.35042	82.841505	55.128935
1.156	498.63617	83.76308	55.548698
1.1577	513.0332	84.743418	57.645415
1.1593999	560.07378	87.248646	61.044212
1.1611	554.45901	88.995093	63.557132
1.1628	459.89418	89.076839	57.856544
1.1645	469.12974	90.788147	56.92168
1.1662001	464.50444	92.609979	59.402251
1.1679	507.27578	95.63666	65.178394
1.1696	569.26181	97.293193	67.805048
1.1713	452.0715	97.006513	59.117945
1.1729999	476.25673	100.13988	62.551732
1.1747	512.64719	103.76056	70.300664
1.1764	647.09759	106.9507	72.895674
1.1781	752.31713	113.29697	85.101259
1.1798001	611.23249	113.54189	82.454113
1.1815	555.34838	115.6734	82.436231
1.1832	466.52742	115.83512	72.75644
1.1849	546.83278	120.40673	81.357267
1.1865999	552.79778	123.13842	78.681366
1.1883	552.76104	126.8443	83.359803
1.19	519.07999	128.57274	85.234751
1.1917	509.9008	133.86363	88.885564
1.1934001	489.57625	135.40047	84.716645
1.1951	686.51265	146.1803	108.79167
1.1968	653.73024	149.02448	108.97811
1.1985	474.12071	150.88884	97.398777
1.2001999	392.78344	156.22987	92.899821
1.2019	587.73859	166.42744	117.31688
1.2036	671.34088	175.27697	125.25572
1.2053	632.26259	180.21854	118.5737
1.2070001	634.45501	188.15995	136.30579
1.2087	697.45408	201.02555	153.06703
1.2104	683.54213	204.51127	150.46174
1.2121	695.24538	213.52717	159.7613
1.2137999	791.31387	234.92979	188.00423
1.2155	662.84261	236.15644	178.01062
1.2172	708.84379	262.37	208.33654
1.2189	661.99469	271.89917	200.86666
1.2206001	552.34442	277.09485	183.29275
1.2223	552.49237	298.04846	201.52595
1.224	336.82987	295.06921	162.53994
1.2257	484.23134	320.92047	197.83874
1.2273999	571.66812	348.89675	250.61907
1.2291	412.34992	353.73375	195.4442
1.2308	156.99405	381.02122	144.64386
1.2325	356.07	421.29558	222.34127
1.2342001	684.97113	505.96365	395.53979
1.2359	931.40346	589.51357	476.89457
1.2376	365.68512	643.89219	366.73094
