# HDF: fcm_201403_060  
# /archive/messung/kmc/daten/2014/1Q/pilatus_201403_0949.tif
# Energy (eV)=8800 Distance (mm)=4.5326  Normalization factor =0.00050420582  Center=(497.5,538.2)  Binsize (nm-1)=0.0017
# Normalized by solid angle (1/distance^2), time (PilatusAcqTime_GRAL) and intensity (K4norm_mean)
# Detector quantum efficiency = 95.72% Monitor sensitivity (ph/s/A) = 4.538e+16 Sample thickness (mm) =1 Direct beam(photons * sr) = 0.5268
# q(nm-1)	I_norm	err_pois	err_stdv
0	0	935.63135	0
0.0017	0	494.83877	0
0.0034	0	362.77644	0
0.0051	0	297.34114	7.8064933
0.0068	105.99153	267.99828	81.816347
0.0085	272.47538	262.2836	125.59677
0.0102	191.09498	249.64911	102.1448
0.0119	160.56528	238.51043	90.083921
0.0136	133.77068	225.72673	78.993419
0.0153	49.998748	213.82501	46.799805
0.017	56.229878	206.54125	48.174035
0.0187	134.50761	193.06453	67.707345
0.0204	74.946701	172.35944	46.393914
0.0221	202.74572	173.80947	114.01711
0.0238	845.83305	195.93345	547.03506
0.0255	11079.494	451.62774	1910.0155
0.0272	27638.362	677.90086	2460.1066
0.0289	42384.838	871.32509	1972.4697
0.0306	45526.309	881.56895	1465.004
0.0323	46731.174	849.14786	1374.5481
0.034	45409.766	755.66233	1195.2563
0.0357	42421.051	675.85444	1024.7864
0.0374	39873.31	628.73752	821.51832
0.0391	38921.232	606.79358	847.36417
0.0408	37121.252	579.26978	776.62337
0.0425	35141.075	543.68757	703.49255
0.0442	34108.311	524.69924	732.73679
0.0459	32291.846	500.63665	706.41453
0.0476	30978.83	483.02831	612.90382
0.0493	28932.624	456.30621	621.3735
0.051	27818.281	438.82589	601.88234
0.0527	25578.565	414.91128	555.91885
0.0544	23525.446	388.19802	541.82716
0.0561	22846.86	378.17783	551.67381
0.0578	21565.984	361.98466	495.22282
0.0595	20041.976	344.12865	463.14991
0.0612	18166.702	321.52558	437.93821
0.0629	16798.376	303.75454	432.14252
0.0646	15913.484	293.65698	421.6555
0.0663	14775.979	278.70882	399.06088
0.068	13460.422	261.21807	367.66539
0.0697	12829.578	251.95209	355.785
0.0714	11800.963	239.17054	322.86454
0.0731	10593.926	223.27151	306.48932
0.0748	9751.9053	212.27291	298.43247
0.0765	8262.1781	191.73619	245.8634
0.0782	7666.0506	184.72937	241.63912
0.0799	6783.6273	171.20813	240.11639
0.0816	6069.6003	161.6864	216.02272
0.0833	5469.2364	151.04289	192.5643
0.085	4803.0893	140.19672	176.33595
0.0867	4316.6245	134.95175	167.28196
0.0884	3757.8375	124.96941	150.68198
0.0901	3314.5089	117.10322	141.85225
0.0918	2760.565	108.0479	133.67352
0.0935	2545.1613	104.49782	121.26174
0.0952	2139.8145	96.565082	110.5475
0.0969	1969.8667	93.513815	102.62493
0.0986	1829.5971	91.071761	95.622045
0.1003	1632.2086	87.235939	85.962151
0.102	1406.1199	83.848018	80.911175
0.1037	1211.806	79.628809	72.125812
0.1054	1110.2799	77.909351	70.008805
0.1071	1128.1238	77.651827	68.039197
0.1088	1024.5546	75.716169	66.134164
0.1105	1119.6097	76.340647	67.035752
0.1122	1059.7854	74.286663	64.708965
0.1139	1024.0852	74.24975	65.195375
0.1156	994.26009	72.717722	60.814142
0.1173	1074.2924	73.474548	63.547126
0.119	1004.1138	71.770902	62.522506
0.1207	1072.219	73.747795	68.116147
0.1224	1186.4782	73.043374	63.692826
0.1241	1298.7559	73.610045	68.160655
0.1258	1255.5401	73.161227	68.1792
0.1275	1246.5746	72.260201	66.156152
0.1292	1212.5722	71.224793	65.313863
0.1309	1337.9699	73.303203	70.510989
0.1326	1384.179	72.420241	68.598006
0.1343	1380.6086	71.234509	66.303728
0.136	1427.2622	72.836779	70.828818
0.1377	1395.2444	73.464367	72.502888
0.1394	1427.021	73.054834	68.014963
0.1411	1434.4522	73.192554	68.157899
0.1428	1433.4594	73.949529	68.934461
0.1445	1264.898	71.590107	65.882514
0.1462	1247.8953	71.758149	64.978561
0.1479	1252.5142	71.837656	66.260713
0.1496	1200.031	71.135622	66.40639
0.1513	1196.1973	71.284447	65.857748
0.153	1139.5742	70.033741	62.649469
0.1547	1156.3702	70.719668	64.607012
0.1564	1019.2666	68.965684	61.690746
0.1581	1005.1687	68.348425	58.387725
0.1598	970.37979	67.756914	57.876191
0.1615	826.69317	65.708006	52.87706
0.1632	889.16597	67.26964	56.397319
0.1649	868.67879	65.598318	52.609188
0.1666	761.34829	63.613519	50.018712
0.1683	652.41863	61.90357	46.512731
0.17	727.82839	61.855874	47.392379
0.1717	765.76143	61.524203	48.760462
0.1734	737.45658	60.191249	44.506133
0.1751	646.17227	59.210098	42.557142
0.1768	684.24456	59.575501	45.910507
0.1785	668.84246	58.676321	44.013306
0.1802	634.02504	57.602697	40.273913
0.1819	655.23037	57.878611	43.00047
0.1836	712.01656	58.174647	44.702665
0.1853	712.27196	57.401717	42.120818
0.187	690.53903	56.832826	41.751393
0.1887	707.17613	57.171331	44.179579
0.1904	665.61714	56.108017	41.330485
0.1921	705.42613	56.061322	41.695004
0.1938	728.86431	56.32107	43.589358
0.1955	716.75762	56.574105	42.710127
0.1972	693.66936	57.090841	43.156126
0.1989	643.52443	56.472197	40.955415
0.2006	766.63048	57.587632	44.439249
0.2023	743.30715	57.278349	44.587767
0.204	722.46439	57.505934	43.810501
0.2057	761.82588	57.683094	44.467565
0.2074	759.33113	57.442494	44.025172
0.2091	800.01065	58.315019	46.512786
0.2108	710.32573	57.49586	44.46553
0.2125	704.11271	57.267299	44.344393
0.2142	720.80908	57.177626	43.997587
0.2159	626.81972	55.986862	39.675587
0.2176	660.39748	56.553359	41.790958
0.2193	734.93571	57.004729	42.116943
0.221	685.96288	56.038614	40.766729
0.2227	637.59058	55.857505	41.595571
0.2244	611.02745	54.48885	38.466744
0.2261	642.89027	54.12385	38.506745
0.2278	686.90079	54.032943	39.33982
0.2295	664.81311	53.164732	37.906239
0.2312	593.27009	52.456883	37.05702
0.2329	629.5535	52.609949	38.841854
0.2346	608.84284	51.809605	37.218523
0.2363	636.09498	51.759814	37.084091
0.238	617.30714	51.345785	36.324327
0.2397	587.46905	50.803659	34.985374
0.2414	551.73723	50.211214	34.217645
0.2431	583.09208	50.164626	34.710834
0.2448	618.49568	50.192761	35.749895
0.2465	648.36173	50.431053	36.640046
0.2482	567.25684	49.316257	34.259608
0.2499	554.59857	48.933248	33.379269
0.2516	552.40751	48.887835	32.590532
0.2533	592.99536	48.705067	33.083791
0.255	607.84451	49.114878	35.763893
0.2567	595.05266	48.39121	33.837884
0.2584	590.38541	48.07619	33.224699
0.2601	591.83993	48.235961	34.012206
0.2618	566.19167	47.658359	33.069158
0.2635	601.49773	47.830994	33.98392
0.2652	606.32356	47.412642	33.437674
0.2669	646.72741	48.033573	35.628337
0.2686	551.32514	46.816832	32.179055
0.2703	539.25882	46.296198	30.704751
0.272	625.1043	47.048843	33.683909
0.2737	590.48613	46.573168	33.117042
0.2754	588.94349	46.467606	33.142817
0.2771	600.9222	46.174297	32.680922
0.2788	578.13131	45.87791	32.185413
0.2805	567.70062	45.689457	31.642437
0.2822	584.31886	45.848485	32.390534
0.2839	536.30363	45.020116	30.414046
0.2856	542.41156	44.922715	30.352467
0.2873	558.92446	45.073354	31.03479
0.289	553.85689	44.485885	29.704158
0.2907	600.81516	45.024402	31.647003
0.2924	509.53906	44.231978	30.504729
0.2941	564.39409	44.64955	32.040419
0.2958	606.1619	44.515438	31.633741
0.2975	546.83977	43.770127	29.519982
0.2992	527.31132	43.783599	29.841882
0.3009	498.55844	43.480988	29.52419
0.3026	519.62882	43.545053	29.839213
0.3043	558.7501	43.531868	30.274171
0.306	510.83901	42.802172	28.11159
0.3077	561.62166	43.226102	29.644998
0.3094	589.28879	43.377635	31.087588
0.3111	556.49905	42.76544	29.605714
0.3128	562.18554	42.730161	29.38436
0.3145	541.30252	42.584952	29.153548
0.3162	555.90029	42.597461	29.75287
0.3179	560.31863	42.394936	29.59044
0.3196	571.69942	42.216133	29.129029
0.3213	552.57644	42.197015	29.162083
0.323	509.02642	41.66643	27.619798
0.3247	554.68356	41.861687	28.575536
0.3264	563.9064	41.772494	28.607236
0.3281	562.70385	41.69325	28.457367
0.3298	528.33713	41.228972	27.770455
0.3315	552.62804	41.29751	28.382297
0.3332	569.55547	41.051708	27.635546
0.3349	568.57181	41.215425	28.713275
0.3366	551.92998	41.09192	28.705557
0.3383	540.07581	40.760689	27.80886
0.34	531.55529	40.525767	27.122534
0.3417	546.48246	40.62165	27.592839
0.3434	500.94035	40.160098	26.117711
0.3451	545.66932	40.292096	26.999269
0.3468	535.03701	39.962605	26.35469
0.3485	536.47746	40.090824	27.03966
0.3502	524.81166	39.787574	26.603028
0.3519	552.80294	40.036106	27.429311
0.3536	495.91521	39.325845	25.962153
0.3553	569.78422	39.786369	27.129836
0.357	538.1891	39.553497	26.668157
0.3587	500.45714	39.340732	26.138997
0.3604	483.83548	38.860913	24.902551
0.3621	512.55969	39.060326	25.816531
0.3638	526.98776	39.057246	26.120484
0.3655	531.3282	38.933807	26.419536
0.3672	527.20717	38.979552	26.725848
0.3689	509.32267	38.652404	25.653962
0.3706	547.2453	38.878434	26.93238
0.3723	524.12838	38.564699	25.950733
0.374	516.08805	38.294763	25.294104
0.3757	529.2235	38.490483	26.354518
0.3774	509.26876	38.200775	25.471968
0.3791	528.66038	38.289236	25.737024
0.3808	535.71084	38.074743	25.70233
0.3825	542.24079	38.180996	26.366772
0.3842	499.61362	37.794444	25.316111
0.3859	533.97119	37.779671	25.768669
0.3876	527.91711	37.770702	25.665414
0.3893	505.29722	37.431654	24.336318
0.391	536.75042	37.584713	25.018885
0.3927	541.97948	37.518383	25.408442
0.3944	549.05275	37.436006	25.871688
0.3961	536.50294	37.436519	25.684376
0.3978	523.25507	37.070589	24.429508
0.3995	550.11485	37.11936	24.684642
0.4012	523.62845	36.982249	24.572825
0.4029	548.61051	37.111975	25.40567
0.4046	514.76233	36.855397	24.822035
0.4063	501.98164	36.517838	23.706879
0.408	518.96664	36.646249	24.399899
0.4097	514.2001	36.42853	23.639576
0.4114	515.01543	36.41601	24.236338
0.4131	542.66489	36.518554	24.396282
0.4148	499.81169	36.069611	23.789964
0.4165	518.95748	36.241625	24.255354
0.4182	494.68403	36.048532	23.373424
0.4199	529.44374	36.104196	24.029753
0.4216	529.21765	35.946121	23.753452
0.4233	517.59015	35.99992	24.388657
0.425	482.95962	35.740131	23.590522
0.4267	508.32671	35.638518	23.184182
0.4284	509.48403	35.49816	23.028931
0.4301	510.45174	35.522646	23.372562
0.4318	524.41121	35.592078	23.811471
0.4335	519.13002	35.454358	23.126425
0.4352	511.33144	35.223728	23.115091
0.4369	524.31628	35.355966	23.749272
0.4386	487.67989	35.135292	23.098532
0.4403	537.2416	35.324905	24.012137
0.442	521.59486	35.085901	23.649619
0.4437	511.60422	35.023376	23.33643
0.4454	527.53817	35.100799	23.654984
0.4471	546.0047	35.07672	24.002267
0.4488	536.17064	34.902365	23.936746
0.4505	535.36063	34.880458	24.00841
0.4522	522.88494	34.76324	23.541036
0.4539	500.45573	34.556279	22.834436
0.4556	501.51014	34.485794	22.843042
0.4573	515.06679	34.475151	23.238465
0.459	507.39009	34.398677	22.869105
0.4607	508.37719	34.3419	22.972969
0.4624	520.62337	34.246789	23.151847
0.4641	526.06172	34.230664	22.829115
0.4658	496.25206	34.168424	22.621311
0.4675	481.34173	33.867149	21.752729
0.4692	505.83509	33.962988	22.523721
0.4709	479.85964	33.732214	21.942337
0.4726	512.50005	33.960812	23.081099
0.4743	524.05928	33.877434	22.935109
0.476	513.87962	33.662981	22.135322
0.4777	528.45173	33.699432	22.358948
0.4794	506.91989	33.560056	22.176664
0.4811	517.16239	33.651267	22.892243
0.4828	528.62066	33.561981	22.905696
0.4845	550.55083	33.617431	22.811768
0.4862	550.57323	33.612234	22.935807
0.4879	529.47353	33.420378	22.401893
0.4896	530.33785	33.215696	21.604896
0.4913	526.14176	33.125691	21.616004
0.493	502.65848	33.014831	21.567337
0.4947	535.52471	33.339822	22.53557
0.4964	525.71991	33.530237	22.607508
0.4981	501.44193	33.467708	21.698683
0.4998	518.41954	33.794876	22.798654
0.5015	509.14689	33.741568	22.407981
0.5032	489.40615	33.715793	22.041608
0.5049	449.29861	33.407415	20.6486
0.5066	511.65015	33.866351	22.424642
0.5083	561.97731	34.088052	23.273409
0.51	518.68742	33.857356	22.302635
0.5117	500.67685	33.843946	22.090901
0.5134	534.93825	34.101455	22.71967
0.5151	522.14012	34.024054	22.578505
0.5168	511.77202	34.028708	22.582993
0.5185	531.84326	34.107159	23.196436
0.5202	554.13658	34.214151	23.331343
0.5219	564.39244	34.179791	22.996392
0.5236	500.42978	33.724807	22.14567
0.5253	488.7664	33.451613	21.843468
0.527	519.26514	33.362231	22.343407
0.5287	508.72787	33.291646	22.128248
0.5304	475.75623	32.865529	20.94147
0.5321	491.55822	32.760813	21.150119
0.5338	506.12525	32.930226	22.190823
0.5355	509.7726	32.750229	21.470199
0.5372	486.95023	32.507648	20.767722
0.53889997	481.20206	32.41926	20.778832
0.5406	504.51156	32.439109	21.075888
0.54230003	526.03749	32.416541	21.390611
0.544	540.60825	32.44652	21.792845
0.54569997	515.88324	32.302808	21.700921
0.5474	516.4492	32.227302	21.541632
0.54910003	498.07831	32.118459	21.270189
0.5508	501.86301	32.008519	20.907145
0.55249997	504.16945	31.920072	20.913342
0.5542	523.62271	32.322675	21.599417
0.55590003	523.33545	32.401524	21.206159
0.5576	494.28919	32.284739	20.866149
0.55929997	515.87615	32.545266	21.627096
0.561	501.46534	32.543467	21.521872
0.56270003	502.88031	32.616014	21.407638
0.5644	485.5282	32.503692	21.063854
0.56609997	462.33151	32.34173	20.373087
0.5678	495.01048	32.577099	21.515719
0.56950003	509.81261	32.783658	22.001054
0.5712	476.23642	32.544598	20.865785
0.57289997	517.9202	32.759649	22.153282
0.5746	528.75856	32.838661	22.034358
0.57630003	499.59991	32.669119	21.482381
0.578	518.02341	32.691048	21.7185
0.57969997	500.0694	32.607784	21.528426
0.5814	523.94704	32.744026	22.112889
0.58310003	514.03566	32.523131	22.021498
0.5848	509.46743	32.2308	21.593494
0.58649997	501.29759	31.793464	20.473241
0.5882	514.79519	31.804321	20.848623
0.58990003	522.30344	31.772399	20.626056
0.5916	524.59095	31.677074	20.978154
0.59329997	523.57868	31.653294	21.452413
0.595	481.13533	31.315248	20.338081
0.59670003	507.9087	31.400713	20.828959
0.5984	484.81509	31.273241	20.881507
0.60009997	470.91595	31.056531	20.191727
0.6018	478.65039	30.910459	19.561123
0.60350003	490.62344	30.910053	19.750488
0.6052	504.94056	30.923772	20.090951
0.60689997	497.01567	30.813874	19.832175
0.6086	477.42362	30.66146	19.759369
0.61030003	486.45273	30.663204	19.808452
0.612	527.71809	30.774433	20.292498
0.61369997	500.90618	30.660812	20.385781
0.6154	496.65056	30.551908	19.978155
0.61710003	508.65789	30.475135	19.971181
0.6188	523.16776	30.507755	20.205584
0.62049997	505.18899	30.367362	20.258657
0.6222	492.73461	30.289381	19.92484
0.62390003	496.70985	30.235901	19.490648
0.6256	484.54158	30.075495	19.145874
0.62729997	478.84651	30.047291	19.497106
0.629	516.81685	30.15444	20.179944
0.63070003	481.54616	29.856849	19.099658
0.6324	497.66863	30.049982	20.11365
0.63409997	482.41578	29.816887	19.415646
0.6358	475.74582	29.706803	19.18775
0.63750003	496.54476	29.819096	19.850801
0.6392	519.64839	29.948059	20.161584
0.64089997	504.04792	29.781926	19.775564
0.6426	478.39969	29.529128	19.105897
0.64430003	473.314	29.430551	18.85032
0.646	527.59834	29.679733	19.84313
0.64769997	484.29108	29.487961	19.338042
0.6494	482.65927	29.398376	19.137041
0.65110003	533.83252	29.583798	19.854994
0.6528	527.96179	29.535792	19.865347
0.65449997	502.84751	29.342224	19.304692
0.6562	480.62565	29.151235	18.831303
0.65790003	486.30886	29.197995	19.048293
0.6596	514.22227	29.281229	19.579136
0.66129997	494.53694	29.108787	19.402107
0.663	494.51017	29.038744	18.944619
0.66470003	475.89944	28.886081	18.542456
0.6664	496.71304	28.985208	18.821733
0.66809997	489.44696	28.865587	18.604609
0.6698	491.15201	28.885955	18.830569
0.67150003	486.81766	28.806012	18.757653
0.6732	486.6158	28.750677	18.63299
0.67489997	496.34563	28.781727	19.106627
0.6766	488.95318	28.635109	18.846268
0.67830003	501.03498	28.708031	18.919088
0.68	484.77159	28.615616	18.596489
0.68169997	495.71117	28.573124	18.629863
0.6834	551.52675	28.825474	19.770605
0.68510003	520.28911	28.536041	19.04089
0.6868	500.20653	28.49386	18.7827
0.68849997	477.63324	28.341239	18.407341
0.6902	504.14279	28.326407	18.508995
0.69190003	483.09501	28.259211	18.377518
0.6936	470.5053	28.134136	17.874153
0.69529997	504.7591	28.22552	18.373992
0.697	521.02642	28.269612	18.911384
0.69870003	496.32435	28.187168	18.577316
0.7004	467.09376	28.04237	17.881272
0.70209997	485.15369	28.039734	18.103989
0.7038	501.13978	28.038502	18.400636
0.70550003	480.76275	27.892872	18.003146
0.7072	506.01703	27.993992	18.190883
0.70889997	500.15156	27.871721	18.15923
0.7106	509.71325	27.92444	18.42538
0.71230003	469.69795	27.73201	17.89957
0.714	474.27733	27.735863	17.879636
0.71569997	457.81537	27.59438	17.301768
0.7174	494.44066	27.659285	17.794438
0.71910003	483.98602	27.624399	18.273747
0.7208	496.34711	27.687077	18.372481
0.72249997	488.2276	27.563241	18.03434
0.7242	500.80322	27.589873	17.900081
0.72590003	500.01289	27.535873	18.05113
0.7276	486.38038	27.49974	18.214884
0.72929997	518.85056	27.625629	18.732026
0.731	513.55802	27.523983	18.585358
0.73270003	476.28081	27.280865	17.568185
0.7344	488.1393	27.274985	17.372156
0.73609997	503.00751	27.350937	17.800195
0.7378	502.6135	27.273489	17.855197
0.73950003	522.43909	27.331001	18.287263
0.7412	515.98065	27.30231	18.100601
0.74289997	488.73708	27.10451	17.248196
0.7446	487.58587	27.026887	17.26388
0.74630003	506.21297	27.159881	18.005852
0.748	467.78396	26.967495	17.126256
0.74969997	469.76589	26.941682	17.358949
0.7514	478.08802	26.929831	17.621153
0.75310003	490.09437	26.94871	17.716167
0.7548	505.4324	27.021372	18.127128
0.75649997	482.4946	26.912815	17.618591
0.7582	480.64217	26.707567	16.880734
0.75990003	471.98969	26.739601	17.256708
0.7616	489.50368	26.788621	17.663025
0.76329997	488.47503	26.773156	17.580258
0.765	465.29991	26.623259	17.063027
0.76670003	479.70691	26.62629	17.060796
0.7684	469.86177	26.575569	16.929335
0.77009997	497.80505	26.633525	17.325806
0.7718	502.43352	26.625817	17.439882
0.77350003	480.47888	26.519252	17.382293
0.7752	501.34647	26.605368	17.653755
0.77689997	485.97464	26.493793	17.202717
0.7786	472.25996	26.366208	16.915698
0.78030003	487.19367	26.42799	17.277233
0.782	507.75207	26.494423	17.733034
0.78369997	509.92574	26.458508	17.734952
0.7854	500.40282	26.453807	17.819627
0.78710003	486.24354	26.261462	17.038195
0.7888	474.90638	26.173703	16.76751
0.79049997	498.69882	26.324157	17.433321
0.7922	502.90082	26.261235	17.450135
0.79390003	494.37126	26.159066	16.98092
0.7956	487.04082	26.117017	17.04004
0.79729997	496.05234	26.147766	17.2857
0.799	475.61141	26.013403	16.684601
0.80070003	471.58841	25.977172	16.651421
0.8024	485.01677	25.975488	16.822848
0.80409997	495.7208	26.004151	17.002679
0.8058	463.37265	25.89398	16.794148
0.80750003	467.48313	25.871905	16.602107
0.8092	456.32329	25.735502	16.184613
0.81089997	488.36668	25.901731	16.784967
0.8126	503.91239	25.909224	17.109922
0.81430003	505.36312	25.852402	17.113784
0.816	497.45106	25.776521	16.747528
0.81769997	495.33566	25.899304	16.748422
0.8194	483.81819	26.07945	17.065791
0.82110003	508.09022	26.254194	17.39532
0.8228	490.99262	26.170029	17.142501
0.82449997	488.73481	26.26122	17.167141
0.8262	485.60489	26.288286	17.154101
0.82790003	484.29324	26.278291	17.048978
0.8296	465.22943	26.188742	16.703277
0.83129997	473.67378	26.309029	16.900781
0.833	496.98937	26.400404	17.388349
0.83470003	508.7868	26.315337	17.0968
0.8364	522.69029	26.436389	17.418681
0.83809997	492.73629	26.412229	17.406791
0.8398	476.28007	26.449424	17.503029
0.84150003	484.9352	26.331837	17.084321
0.8432	476.07603	26.437174	16.960245
0.84489997	488.57105	26.791307	17.538512
0.8466	466.70091	26.696373	16.981614
0.84830003	481.58774	26.886321	17.183272
0.85	487.17171	27.035002	17.651034
0.85169997	465.0511	27.016911	17.33997
0.8534	486.19194	27.284503	17.662951
0.85510003	484.07519	27.434465	17.690612
0.8568	482.3079	27.637116	17.995604
0.85849997	482.3293	27.864863	17.925278
0.8602	448.84726	27.789165	17.233353
0.86190003	479.5032	28.167657	18.462629
0.8636	477.31513	28.251742	18.322014
0.86529997	491.82698	28.45915	18.577135
0.867	488.41063	28.497787	18.515098
0.86870003	464.65546	28.498709	17.936338
0.8704	460.12101	28.529693	17.78591
0.87209997	463.224	28.748614	18.319925
0.8738	453.25739	28.789339	18.152492
0.87550003	473.29369	28.987439	19.015034
0.8772	519.95841	29.337754	19.824374
0.87889997	507.04656	29.310502	19.334959
0.8806	500.7405	29.380962	19.317722
0.88230003	480.70925	29.382912	19.082443
0.884	456.37634	29.357123	18.707303
0.88569997	470.60584	29.629926	19.039433
0.8874	478.33571	29.668385	19.113337
0.88910003	481.08559	29.810215	19.282021
0.8908	471.74254	29.769342	19.174194
0.89249997	508.82765	30.021312	19.569364
0.8942	476.32969	30.047707	19.498894
0.89590003	501.35103	30.205845	19.868086
0.8976	493.07814	30.28806	19.876834
0.89929997	458.7305	30.202603	19.19862
0.901	445.86946	30.207733	18.672824
0.90270003	455.05092	30.307744	19.084545
0.9044	481.0631	30.518812	19.635801
0.90609997	476.79661	30.610046	19.551946
0.9078	461.01628	30.655681	19.573001
0.90950003	465.65068	30.686535	19.250716
0.9112	472.25062	30.897029	19.620407
0.91289997	470.97337	31.329116	20.313418
0.9146	501.75828	31.818104	21.301702
0.91630003	479.29224	31.959356	20.584821
0.918	442.43263	31.95694	19.477598
0.91969997	475.10164	32.374136	20.458075
0.9214	490.36345	32.678118	21.067458
0.92310003	499.29202	32.867184	21.391366
0.9248	493.5301	33.037284	21.29298
0.92649997	501.75071	33.363705	21.706101
0.9282	458.74076	33.356128	21.086596
0.92990003	466.81936	33.624051	21.143001
0.9316	485.18919	33.779271	21.631832
0.93329997	458.42775	33.825667	21.325613
0.935	478.87689	34.255105	22.277191
0.93670003	494.02037	34.473614	22.229948
0.9384	463.96713	34.41683	21.308031
0.94009997	455.07075	34.63678	21.51682
0.9418	468.2906	35.046812	22.348608
0.94350003	474.22774	35.202885	23.323157
0.9452	494.01972	35.410016	23.675615
0.94689997	482.34718	35.501541	22.770641
0.9486	472.22609	35.631374	22.150177
0.95030003	451.39929	35.783775	22.745241
0.952	469.0556	36.003282	23.286798
0.95369997	446.12185	36.119771	22.948846
0.9554	468.51211	36.559723	23.735511
0.95710003	454.88583	36.539959	23.28784
0.9588	471.4762	36.752686	23.679649
0.96049997	475.60057	36.944911	23.859548
0.9622	446.69268	37.004673	23.146623
0.96390003	470.79974	37.22429	23.996535
0.9656	478.05453	37.341349	23.884135
0.96729997	462.52774	37.398916	22.970489
0.969	480.56382	37.79529	24.297844
0.97070003	487.78551	37.874553	24.302021
0.9724	451.95079	37.960677	23.849387
0.97409997	428.12942	38.034225	23.120282
0.9758	462.58655	38.339784	23.84867
0.97750003	457.96205	38.516102	24.750148
0.9792	502.74425	39.017828	25.746513
0.98089997	493.53232	39.181264	26.116213
0.9826	459.11435	39.198638	25.540654
0.98430003	486.15205	39.258388	25.241037
0.986	477.52525	39.390102	25.189817
0.98769997	463.9176	39.413486	24.675181
0.9894	464.90868	39.609387	24.536476
0.99110003	466.43111	39.747185	24.981609
0.9928	485.11755	40.144405	26.111054
0.99449997	446.63936	39.971091	24.5098
0.9962	492.67352	40.428701	25.762355
0.99790003	474.21512	40.290064	25.31936
0.9996	458.60407	40.555856	25.887852
1.0013	460.21499	40.876337	25.932339
1.003	460.46749	40.997677	26.314425
1.0047	478.84696	41.235913	26.358138
1.0064	452.87074	41.283628	25.861926
1.0081	448.29112	41.476551	26.258749
1.0098	470.90014	41.90447	26.68481
1.0115	465.55464	41.919938	26.722268
1.0132	439.33664	41.955107	25.963873
1.0149	449.19644	42.3443	26.567074
1.0166	457.93997	42.546333	27.246808
1.0183	446.47968	42.570304	26.922018
1.02	447.28053	42.82198	27.493912
1.0217	443.19396	42.964632	27.151244
1.0234	435.93157	42.766146	25.423747
1.0251	474.2348	43.527051	27.421677
1.0268	514.11794	44.231013	29.702362
1.0285	489.68348	44.121905	29.651247
1.0302	466.15922	44.070843	28.286497
1.0319	458.13219	44.315485	27.99876
1.0336	474.53968	44.714209	28.531481
1.0353	475.59268	45.042633	28.830899
1.037	459.72221	45.19929	28.731565
1.0387	425.10474	45.180578	27.560899
1.0404	433.48051	45.319865	27.435231
1.0421	462.55106	45.840236	28.532249
1.0438	457.95714	46.083962	29.10759
1.0455	486.03815	46.657201	29.707047
1.0472	475.92634	46.949084	30.137853
1.0489	435.05002	46.852185	29.630576
1.0506	425.48649	47.1564	28.995145
1.0523	458.42574	47.465347	29.568366
1.054	512.55337	48.108629	31.56399
1.0557	507.35055	48.420679	32.106168
1.0574	445.51413	48.624626	31.051362
1.0591	453.93396	48.770662	30.405499
1.0608	498.6562	49.26589	32.570823
1.0625	516.23943	49.811245	33.141949
1.0642	461.82229	49.47547	30.389388
1.0659	509.80989	50.566294	33.563197
1.0676	473.45461	50.632336	33.683912
1.0693	447.13022	50.558226	31.394555
1.071	449.74939	51.217603	32.913886
1.0727	433.77161	51.039867	31.653627
1.0744	508.10523	52.362503	35.48673
1.0761	482.54457	52.205588	33.999738
1.0777999	448.3077	52.645322	33.678253
1.0795	418.28921	52.635392	32.166617
1.0812	477.33915	53.195287	34.213264
1.0829	484.7728	53.992525	36.627456
1.0846001	475.59135	54.190117	36.266258
1.0863	490.52659	54.757726	36.798679
1.088	479.56573	55.136409	36.616573
1.0897	424.91861	55.178131	35.00001
1.0913999	453.3397	55.964405	36.284437
1.0931	468.02491	55.945387	35.943642
1.0948	519.35723	56.661662	36.5224
1.0965	471.73329	56.743168	35.869677
1.0982001	467.2877	57.456953	36.160977
1.0999	464.83805	57.771715	36.018856
1.1016	485.01423	58.506058	37.829864
1.1033	474.33528	59.054376	37.473513
1.1049999	417.83997	58.631189	34.794582
1.1067	429.32295	59.240716	35.950547
1.1084	456.99543	60.420878	38.906496
1.1101	434.69995	60.60093	37.190466
1.1118001	442.22188	61.391477	37.938884
1.1135	439.3836	61.744068	37.948837
1.1152	434.95293	62.527523	38.471701
1.1169	470.7214	63.348252	40.769286
1.1185999	476.48195	63.780357	40.977244
1.1203	461.54727	64.313174	40.440438
1.122	395.67245	64.33746	36.659134
1.1237	455.71188	66.334893	42.321085
1.1254001	423.0987	65.928292	42.110493
1.1271	431.40258	66.769776	42.269244
1.1288	408.56698	67.255676	40.588775
1.1305	408.37048	68.009776	40.540617
1.1321999	419.19429	68.680875	41.42884
1.1339	427.594	69.993659	42.449034
1.1356	465.69082	71.078184	44.522897
1.1373	480.66643	71.447133	44.577361
1.1390001	492.20574	72.983691	47.816715
1.1407	497.56939	73.798457	50.954257
1.1424	477.05124	74.954688	52.030855
1.1441	448.79679	75.808613	49.503638
1.1457999	397.06828	75.711241	45.176736
1.1475	496.77244	78.90178	55.265972
1.1492	505.33528	79.103366	55.873911
1.1509	479.93119	79.694042	51.6239
1.1526001	441.12535	80.458316	50.371443
1.1543	514.25542	83.190765	54.494391
1.156	491.48292	84.380243	54.787265
1.1577	419.45703	84.086184	53.779283
1.1593999	496.62698	86.423972	55.66739
1.1611	461.37456	87.030223	54.635684
1.1628	506.36281	89.99557	59.976209
1.1645	516.52746	91.270746	59.210394
1.1662001	464.19442	92.520034	54.612285
1.1679	359.9568	93.282011	52.536209
1.1696	496.83947	96.338937	64.819747
1.1713	581.35563	100.11392	72.120153
1.1729999	661.40006	103.63747	76.988952
1.1747	602.76027	104.89982	72.876721
1.1764	444.16548	104.90104	65.204248
1.1781	465.19316	108.04135	65.724445
1.1798001	448.39397	110.2268	65.42067
1.1815	514.97701	113.47528	71.825643
1.1832	457.19025	115.4622	68.609894
1.1849	387.7903	117.96289	68.416495
1.1865999	382.78301	122.26339	74.470154
1.1883	471.5687	124.16991	72.464749
1.19	517.36306	129.22821	80.645494
1.1917	403.3292	130.68227	76.568528
1.1934001	390.61348	134.76977	81.210887
1.1951	343.93617	137.59583	73.94477
1.1968	358.6247	143.5512	80.565537
1.1985	421.89985	149.68638	90.146715
1.2001999	300.25615	151.35455	75.439694
1.2019	348.78351	156.78845	85.823847
1.2036	520.19312	163.78025	103.19405
1.2053	525.44541	170.98665	116.71833
1.2070001	523.62892	175.94136	130.95361
1.2087	805.40432	194.43716	163.46771
1.2104	569.45239	193.31659	145.17816
1.2121	481.55328	195.53715	135.55538
1.2137999	649.6563	210.61059	156.93897
1.2155	525.54719	219.67445	164.57942
1.2172	575.56339	230.71153	154.62262
1.2189	648.29192	244.31718	164.06886
1.2206001	492.83494	251.83674	156.92747
1.2223	498.28796	280.66534	179.42922
1.224	321.289	294.66207	174.79613
1.2257	644.42239	323.9564	222.4628
1.2273999	386.05724	330.47826	178.93139
1.2291	661.72947	362.52815	213.96053
1.2308	1056.3397	420.20412	314.36607
1.2325	671.35979	440.03387	316.83425
1.2342001	149.7387	444.85857	166.53961
1.2359	495.39583	553.14559	330.50764
1.2376	522.94848	659.21368	414.22306
