# HDF: fcm_201403_060  
# /archive/messung/kmc/daten/2014/1Q/pilatus_201403_0944.tif
# Energy (eV)=8800 Distance (mm)=4.5326  Normalization factor =0.0005053858  Center=(497.5,538.2)  Binsize (nm-1)=0.0017
# Normalized by solid angle (1/distance^2), time (PilatusAcqTime_GRAL) and intensity (K4norm_mean)
# Detector quantum efficiency = 95.72% Monitor sensitivity (ph/s/A) = 4.538e+16 Sample thickness (mm) =1 Direct beam(photons * sr) = 0.528
# q(nm-1)	I_norm	err_pois	err_stdv
0	758.42024	1023.6333	996.82098
0.0017	165.64514	502.13824	179.97132
0.0034	0	361.92942	10.569918
0.0051	0	296.6469	8.4144004
0.0068	114.2453	268.89423	86.776168
0.0085	138.75267	257.49977	92.95728
0.0102	84.947275	245.46719	70.134208
0.0119	209.13751	238.79006	101.39221
0.0136	92.552322	222.90994	64.981554
0.0153	106.15243	215.66724	67.775489
0.017	143.57452	211.22874	95.201148
0.0187	128.18839	192.02941	69.810333
0.0204	152.95372	173.56919	64.632116
0.0221	170.56556	171.19083	110.13394
0.0238	2393.1725	226.90238	2862.9028
0.0255	65139.733	1062.238	11360.692
0.0272	166434.24	1711.5772	12422.717
0.0289	265249.62	2351.5087	6181.8258
0.0306	269707.67	2233.6594	4013.9192
0.0323	264328.21	2076.3353	3945.6822
0.034	261131.92	1862.2958	3997.1172
0.0357	252580.37	1692.5677	3771.8096
0.0374	239531.86	1594.0876	3477.8509
0.0391	224610.85	1506.23	3178.1037
0.0408	214530.47	1439.7098	3061.8183
0.0425	200687.94	1349.7787	3094.2119
0.0442	186125.42	1269.6817	2969.9394
0.0459	172254.51	1205.9481	2727.7649
0.0476	159408.61	1136.5537	2687.326
0.0493	146860.97	1070.6878	2650.3899
0.051	137924.93	1011.635	2573.0166
0.0527	126226.89	957.39754	2339.607
0.0544	112324.26	879.31368	2133.655
0.0561	103223.59	827.99664	2006.2798
0.0578	92446.245	772.07296	1863.3196
0.0595	84252.144	722.57937	1782.0461
0.0612	74941.304	671.63991	1589.9816
0.0629	64789.751	611.22335	1396.5758
0.0646	58320.147	575.96605	1324.1002
0.0663	51687.482	536.53778	1209.644
0.068	45722.816	494.52213	1105.9534
0.0697	40287.21	454.02162	1021.3471
0.0714	34579.406	415.50714	924.77582
0.0731	30206.673	384.31106	824.85439
0.0748	26134.043	348.44523	728.54731
0.0765	22148.065	318.97114	678.19
0.0782	18492.681	287.15627	585.28469
0.0799	15566.012	260.55132	496.08143
0.0816	13183.757	238.2854	437.53512
0.0833	10844.364	210.27453	378.0984
0.085	9005.3406	190.06862	337.7752
0.0867	7791.579	178.5405	290.21935
0.0884	6031.341	154.85368	243.27242
0.0901	5211.3316	144.43185	211.80511
0.0918	4230.7872	127.87591	177.31677
0.0935	3904.5472	124.26337	165.08516
0.0952	3260.8025	113.25509	135.44647
0.0969	2675.726	102.53748	112.10914
0.0986	2475.9344	99.737786	108.14418
0.1003	2342.9024	96.836577	104.03815
0.102	2449.029	97.344665	108.58252
0.1037	2436.2265	95.76783	106.7419
0.1054	2355.6809	94.680794	100.72517
0.1071	2470.5031	94.896365	101.53284
0.1088	2719.7212	98.361697	108.31386
0.1105	2652.1161	95.462486	103.69977
0.1122	2843.4948	97.70289	104.76258
0.1139	2866.9146	96.703402	106.42171
0.1156	2996.8984	98.462844	108.02885
0.1173	3214.2544	99.905532	115.73795
0.119	3472.9326	103.07928	121.55698
0.1207	3301.7393	100.19741	114.61951
0.1224	3221.8626	98.189536	107.41475
0.1241	3439.6639	100.34063	114.54947
0.1258	3382.0798	97.985413	113.17635
0.1275	3377.7285	98.213868	111.90982
0.1292	3117.4218	93.861922	100.17957
0.1309	3108.4467	93.821676	101.45739
0.1326	3048.9441	92.081185	105.78104
0.1343	2770.4342	87.88304	94.105931
0.136	2807.873	88.855711	94.588765
0.1377	2669.4094	86.737315	91.448458
0.1394	2474.1939	85.658248	92.978228
0.1411	2419.1926	84.941253	87.917175
0.1428	2306.4404	84.235536	89.000282
0.1445	2058.7301	81.517862	89.688522
0.1462	2030.4099	81.166309	84.782654
0.1479	1882.8084	78.717403	80.654587
0.1496	1702.5663	77.351546	79.83971
0.1513	1555.7324	74.518521	73.293887
0.153	1528.5399	74.363372	70.101362
0.1547	1299.0337	71.907847	66.71984
0.1564	1128.7815	69.354161	62.252853
0.1581	1207.3509	70.050789	61.480714
0.1598	1180.2177	69.414965	60.105429
0.1615	1081.3317	68.984046	61.451388
0.1632	1027.5523	68.021016	60.108624
0.1649	1057.5154	67.766467	60.380024
0.1666	1050.443	66.454559	57.248245
0.1683	1018.8752	65.347518	55.360371
0.17	772.11247	61.725615	48.558695
0.1717	845.5588	62.558551	51.15732
0.1734	1007.8105	63.858429	56.413971
0.1751	898.72094	61.453987	53.6829
0.1768	945.22112	62.283982	53.912432
0.1785	963.89421	61.545651	51.758451
0.1802	957.37773	60.768463	51.48665
0.1819	1002.1621	60.627397	50.688734
0.1836	937.34174	59.705642	49.495281
0.1853	1071.5025	61.191514	54.018131
0.187	1030.0141	60.048896	51.677622
0.1887	1014.4701	59.449751	51.093913
0.1904	1050.5809	59.839842	53.618462
0.1921	1012.4698	59.005033	51.129247
0.1938	977.20674	58.4715	49.85976
0.1955	960.10967	58.622038	49.271072
0.1972	994.81366	59.674996	51.027252
0.1989	1042.7216	60.34884	53.947087
0.2006	1077.9957	60.286532	52.084242
0.2023	979.03821	59.09829	48.281015
0.204	913.21816	58.919292	48.054373
0.2057	975.08225	59.56678	49.040958
0.2074	876.76431	58.368447	47.608233
0.2091	838.09975	57.997256	46.707323
0.2108	874.46804	58.836266	48.015553
0.2125	851.98865	58.045763	45.737906
0.2142	779.10147	57.271641	44.137914
0.2159	750.18869	57.245838	44.50198
0.2176	748.89514	56.899393	43.949097
0.2193	806.10305	57.627194	45.540723
0.221	791.18484	57.483618	45.434969
0.2227	781.67095	56.847382	44.529998
0.2244	761.83864	55.7607	42.594739
0.2261	708.79567	54.896639	42.282278
0.2278	754.01999	54.83136	42.751631
0.2295	722.52978	53.474897	41.292682
0.2312	749.66463	54.127198	43.219196
0.2329	710.29598	53.14434	41.834969
0.2346	728.40644	52.897004	41.443043
0.2363	724.36048	52.479574	40.345743
0.238	702.85344	51.73347	38.00267
0.2397	730.76062	52.170518	40.157926
0.2414	725.03981	51.649228	39.958583
0.2431	730.04078	51.232167	39.711298
0.2448	777.51861	51.092712	39.23627
0.2465	797.02576	51.356172	39.765635
0.2482	757.23784	50.787335	39.427305
0.2499	689.23899	49.909272	38.124652
0.2516	740.17886	50.476945	40.024117
0.2533	757.29781	50.456549	40.602349
0.255	694.83283	49.507049	37.80367
0.2567	687.52687	49.208424	37.411011
0.2584	689.7637	48.955703	37.14689
0.2601	676.13545	48.611078	36.825647
0.2618	719.2197	48.909515	37.946313
0.2635	664.3491	48.040468	36.264158
0.2652	696.60274	48.11537	36.309915
0.2669	642.68208	47.624951	35.197007
0.2686	707.36608	47.953919	36.005116
0.2703	689.83629	47.34266	35.792668
0.272	679.37016	47.456714	36.023187
0.2737	657.67052	46.941771	34.040852
0.2754	675.77379	46.629159	33.70774
0.2771	705.97847	46.798494	35.084297
0.2788	685.59633	46.509429	34.708518
0.2805	697.31208	46.634389	34.988749
0.2822	628.20101	45.80976	32.911911
0.2839	604.94128	45.377105	31.432356
0.2856	616.87127	45.366034	32.195727
0.2873	618.78494	45.342811	32.795918
0.289	609.52851	44.988618	31.75224
0.2907	613.4439	44.83926	31.669063
0.2924	600.73958	44.668617	31.863589
0.2941	606.49683	44.58924	31.736049
0.2958	638.65175	44.673622	31.723393
0.2975	581.62652	43.910826	30.685962
0.2992	628.95057	44.386982	32.644591
0.3009	634.05597	44.296789	33.039137
0.3026	625.23084	44.168843	32.543584
0.3043	639.66933	43.854039	31.967467
0.306	639.45651	43.632372	31.752192
0.3077	655.45875	43.81273	32.250694
0.3094	641.02409	43.558174	31.51941
0.3111	616.57848	43.039689	30.87405
0.3128	599.85156	42.954858	30.527017
0.3145	592.64715	42.842565	30.373363
0.3162	580.27223	42.593854	29.70344
0.3179	584.18845	42.200808	28.811559
0.3196	633.19124	42.615208	31.588452
0.3213	649.89351	42.578463	31.019802
0.323	620.04713	42.443279	30.433536
0.3247	609.85986	42.033276	29.319649
0.3264	637.63187	42.149213	30.462263
0.3281	612.83911	41.822965	30.23514
0.3298	637.80253	41.801124	29.817248
0.3315	652.11005	41.856039	30.577648
0.3332	653.87908	41.693173	30.246158
0.3349	591.83874	41.212565	29.158522
0.3366	594.79364	41.247722	29.408602
0.3383	611.54019	41.189021	29.836772
0.34	630.66516	41.23215	30.114268
0.3417	610.36582	40.764404	28.992394
0.3434	636.2547	41.084262	29.500915
0.3451	605.0637	40.571943	28.730037
0.3468	646.37746	40.824033	30.108726
0.3485	645.90883	40.560971	29.313862
0.3502	633.2416	40.606163	29.954602
0.3519	595.55092	40.181978	28.900936
0.3536	643.23893	40.31523	29.337076
0.3553	643.96708	40.240807	29.363566
0.357	599.20302	39.80946	28.459837
0.3587	608.09726	39.770577	28.372645
0.3604	589.30753	39.526934	27.621837
0.3621	595.55676	39.410628	27.76678
0.3638	629.17011	39.598398	28.519831
0.3655	584.96756	39.096332	27.103042
0.3672	587.59164	39.212785	27.853346
0.3689	563.89689	38.868618	27.06844
0.3706	635.352	39.284732	28.72932
0.3723	655.23231	39.162636	28.355517
0.374	605.35218	38.656692	27.081581
0.3757	644.21634	39.135108	28.601406
0.3774	628.84236	38.832075	28.051689
0.3791	605.71153	38.449979	26.486917
0.3808	603.73417	38.373068	26.684206
0.3825	596.90604	38.207246	26.989253
0.3842	588.96392	38.174083	26.895949
0.3859	593.92973	38.084777	27.044593
0.3876	643.28616	38.378574	27.970647
0.3893	623.86487	38.110149	27.454539
0.391	616.94126	37.933587	26.904911
0.3927	632.93236	37.994738	27.366236
0.3944	625.09544	37.624827	26.939247
0.3961	625.84247	37.827143	27.562348
0.3978	573.14501	37.341032	26.077416
0.3995	592.33732	37.338335	26.759759
0.4012	619.69331	37.472206	27.263238
0.4029	606.80848	37.328903	26.86593
0.4046	583.33363	37.105151	25.77316
0.4063	572.50749	36.773496	25.262212
0.408	639.53523	37.097754	26.40252
0.4097	612.98719	37.013011	26.745794
0.4114	591.29109	36.816046	25.893669
0.4131	573.73299	36.535764	24.718113
0.4148	530.5417	36.148685	24.077283
0.4165	585.93495	36.519673	25.489143
0.4182	567.85686	36.385248	25.141582
0.4199	569.61162	36.293956	24.978207
0.4216	573.35075	36.128669	25.100005
0.4233	576.51252	36.115684	25.641851
0.425	597.6947	36.179618	25.363158
0.4267	602.99882	36.185685	25.825644
0.4284	597.5343	35.9542	25.390383
0.4301	591.08788	35.989353	25.349505
0.4318	593.74457	35.966374	25.297208
0.4335	552.7664	35.644212	24.600617
0.4352	530.72333	35.312502	23.894083
0.4369	588.90512	35.585962	24.815181
0.4386	601.15337	35.551722	24.992999
0.4403	570.08432	35.357628	24.741976
0.442	547.91976	35.168782	24.061601
0.4437	582.62618	35.21968	24.191422
0.4454	584.20939	35.165115	23.995056
0.4471	550.84842	34.951852	23.937177
0.4488	573.11234	35.072341	24.942376
0.4505	545.30972	34.788717	23.823136
0.4522	563.86127	34.841627	23.80574
0.4539	618.73022	35.018797	24.595693
0.4556	597.43812	34.725	24.175161
0.4573	588.17962	34.723043	23.921578
0.459	604.783	34.731236	24.517921
0.4607	567.03624	34.500205	24.150737
0.4624	575.3175	34.481862	24.225105
0.4641	614.17359	34.781073	25.604498
0.4658	587.36726	34.524261	24.531628
0.4675	587.93502	34.407383	23.978354
0.4692	573.53391	34.172088	23.772013
0.4709	556.63456	34.055583	23.813697
0.4726	602.8389	34.279346	24.321225
0.4743	573.12378	33.942789	23.445355
0.476	566.24063	33.991144	23.816341
0.4777	547.04206	33.766371	22.934446
0.4794	536.30349	33.721123	23.127348
0.4811	547.73967	33.614982	22.871699
0.4828	567.19405	33.677508	23.613507
0.4845	574.18075	33.72284	23.509921
0.4862	544.86762	33.466692	22.709507
0.4879	604.01268	33.758889	24.102032
0.4896	594.66886	33.511173	23.678642
0.4913	583.28787	33.396139	23.354202
0.493	584.82332	33.430584	23.208173
0.4947	597.72878	33.57308	23.529208
0.4964	603.50885	33.844417	24.207687
0.4981	564.45798	33.771741	23.444965
0.4998	563.56642	33.806009	22.900386
0.5015	564.8049	33.839522	23.200065
0.5032	581.33663	34.018521	23.881608
0.5049	579.96135	34.128189	23.770565
0.5066	546.58387	33.985851	23.208505
0.5083	552.3979	34.009498	23.432635
0.51	570.61416	34.16733	23.895574
0.5117	554.26429	34.06821	23.386174
0.5134	545.96534	34.052192	23.430291
0.5151	596.93299	34.352151	23.914592
0.5168	597.9751	34.35343	24.285104
0.5185	575.9526	34.208188	23.583291
0.5202	557.47553	34.098111	23.17276
0.5219	574.33684	34.219094	23.629432
0.5236	571.12489	34.038257	23.774774
0.5253	561.54796	33.730698	23.420408
0.527	577.20924	33.568392	23.252135
0.5287	610.84907	33.62525	23.476731
0.5304	572.5388	33.309778	22.975872
0.5321	555.27638	33.100772	23.006529
0.5338	611.11951	33.369473	23.906242
0.5355	607.80902	33.163873	23.562307
0.5372	575.95761	32.863066	22.660092
0.53889997	562.85679	32.626525	22.138397
0.5406	587.08857	32.740553	22.448976
0.54230003	557.18817	32.525237	22.076973
0.544	599.99386	32.742189	23.122723
0.54569997	578.0686	32.454323	22.637072
0.5474	560.98999	32.36121	22.354638
0.54910003	604.44387	32.574149	23.361565
0.5508	599.42345	32.452742	23.257368
0.55249997	557.34562	32.157717	22.159534
0.5542	555.32928	32.415407	22.318252
0.55590003	574.40524	32.599391	22.719795
0.5576	611.2832	32.888275	23.67175
0.55929997	621.95325	32.981878	23.783945
0.561	575.12172	32.782034	22.709686
0.56270003	537.24264	32.716814	22.331095
0.5644	569.76164	32.874627	22.933799
0.56609997	515.37099	32.595573	22.161454
0.5678	554.02888	32.847667	22.543985
0.56950003	602.57772	33.054565	23.088677
0.5712	594.50758	32.979501	22.651649
0.57289997	565.7993	32.868203	22.862559
0.5746	592.32747	33.130533	23.254038
0.57630003	571.77379	32.908774	22.677175
0.578	571.42847	32.9224	22.767782
0.57969997	579.84229	32.962197	23.014237
0.5814	564.17693	32.901433	22.914741
0.58310003	548.79699	32.518294	22.18153
0.5848	565.86782	32.408223	22.439853
0.58649997	542.55649	31.961729	21.613038
0.5882	615.46143	32.350419	23.323508
0.58990003	580.95451	32.018667	22.245651
0.5916	557.06622	31.817161	21.846644
0.59329997	571.26895	31.762055	22.282032
0.595	556.48136	31.62048	22.097048
0.59670003	528.00325	31.399591	21.052766
0.5984	559.44446	31.497075	21.558165
0.60009997	578.56118	31.414135	21.812589
0.6018	561.58151	31.225613	21.54932
0.60350003	584.81388	31.434914	22.251156
0.6052	555.53508	31.192034	21.670062
0.60689997	548.66473	31.049549	21.306393
0.6086	554.39644	30.815361	20.674969
0.61030003	592.45827	31.144788	21.773712
0.612	580.92797	30.982449	21.443702
0.61369997	583.20266	30.937267	21.636633
0.6154	557.09482	30.762721	21.076066
0.61710003	539.0931	30.573369	20.852714
0.6188	561.09372	30.654251	21.205583
0.62049997	560.76001	30.594117	21.208819
0.6222	538.31441	30.418581	20.895765
0.62390003	552.51903	30.454035	21.123719
0.6256	572.89651	30.483789	20.97071
0.62729997	545.69591	30.197871	19.979358
0.629	544.02383	30.151136	20.337472
0.63070003	565.93493	30.193681	20.705073
0.6324	594.2793	30.345146	21.374898
0.63409997	568.86276	30.191866	21.109071
0.6358	579.90804	30.162276	20.978466
0.63750003	578.9525	30.118801	20.994578
0.6392	582.20531	30.081436	20.819363
0.64089997	531.14543	29.746156	19.958398
0.6426	562.50161	29.896965	20.643424
0.64430003	552.7519	29.741735	20.699102
0.646	568.31694	29.812902	20.814874
0.64769997	550.58253	29.699467	20.546578
0.6494	537.56668	29.548675	20.084484
0.65110003	563.63713	29.706258	20.722546
0.6528	544.75499	29.626295	20.902746
0.65449997	538.20903	29.408453	20.132076
0.6562	578.53299	29.563777	20.759479
0.65790003	561.58588	29.380822	20.162583
0.6596	551.03842	29.384351	20.261669
0.66129997	585.50147	29.480199	20.774686
0.663	570.34986	29.340681	20.658494
0.66470003	565.23791	29.227675	20.268603
0.6664	575.45567	29.233367	19.952162
0.66809997	566.00157	29.211642	20.243489
0.6698	551.51672	29.006068	19.751152
0.67150003	549.00828	29.054467	20.051501
0.6732	531.58193	28.919563	19.741834
0.67489997	547.66714	28.981686	20.290711
0.6766	555.22614	28.880649	20.199017
0.67830003	561.99542	28.888829	19.78742
0.68	563.83373	28.851492	19.744459
0.68169997	572.84479	28.867506	19.943551
0.6834	567.67648	28.751334	19.67064
0.68510003	554.85151	28.603435	19.334251
0.6868	535.55717	28.57928	19.316033
0.68849997	548.38798	28.569681	19.639546
0.6902	554.59758	28.583695	19.976032
0.69190003	558.43113	28.62319	20.187708
0.6936	558.39427	28.509217	19.643761
0.69529997	554.4728	28.501343	19.733057
0.697	542.05897	28.290975	19.300498
0.69870003	554.52027	28.387677	19.578852
0.7004	548.83733	28.257349	19.084386
0.70209997	567.84566	28.276748	19.326371
0.7038	555.9984	28.212256	19.329885
0.70550003	535.96825	28.052908	18.946941
0.7072	556.02647	28.145407	19.02224
0.70889997	570.14246	28.11299	19.211961
0.7106	593.19232	28.209057	19.818399
0.71230003	574.93438	28.098437	19.534175
0.714	566.87019	28.036549	19.534083
0.71569997	579.2122	28.106223	19.663368
0.7174	540.60337	27.819306	18.940193
0.71910003	549.32807	27.827569	19.121454
0.7208	568.99185	27.893828	19.184146
0.72249997	568.55211	27.812876	19.195689
0.7242	583.14864	27.958328	19.703954
0.72590003	551.37243	27.635638	18.905653
0.7276	561.56989	27.746209	19.15512
0.72929997	561.74999	27.662489	19.057404
0.731	542.20586	27.490499	18.675599
0.73270003	541.37363	27.525975	18.882773
0.7344	582.50252	27.669379	19.392933
0.73609997	576.47908	27.671924	19.569181
0.7378	557.30068	27.440423	19.014413
0.73950003	553.12836	27.376954	18.607347
0.7412	527.66105	27.24395	18.193745
0.74289997	548.97791	27.357164	18.772198
0.7446	556.49257	27.296169	18.574402
0.74630003	558.02607	27.30739	18.862598
0.748	552.59368	27.234067	18.639585
0.74969997	514.28913	27.017142	17.997098
0.7514	515.90336	27.039672	18.309107
0.75310003	534.20259	27.025286	18.317228
0.7548	539.10342	27.055985	18.377611
0.75649997	555.75321	27.09208	18.615439
0.7582	587.74555	27.198261	19.171613
0.75990003	577.24545	27.093681	18.943252
0.7616	589.49423	27.128355	19.25466
0.76329997	572.91998	27.047021	18.834851
0.765	539.21293	26.861564	18.233962
0.76670003	541.45984	26.822751	18.305558
0.7684	528.84987	26.74535	18.050563
0.77009997	560.19614	26.808027	18.324355
0.7718	542.02353	26.732738	18.423773
0.77350003	540.50247	26.638695	18.019881
0.7752	557.87858	26.734557	18.284056
0.77689997	569.50724	26.768317	18.482249
0.7786	535.43888	26.568963	18.128342
0.78030003	546.10345	26.562049	18.1429
0.782	573.85518	26.571142	18.12027
0.78369997	552.82095	26.513071	18.1466
0.7854	542.01144	26.455084	17.945205
0.78710003	543.9582	26.417134	17.890916
0.7888	527.12018	26.337414	17.688981
0.79049997	552.32119	26.417867	18.062412
0.7922	533.97036	26.268429	17.708553
0.79390003	539.62064	26.294697	17.728328
0.7956	568.70567	26.429937	18.414602
0.79729997	559.08309	26.292443	18.097547
0.799	559.7429	26.336648	18.242383
0.80070003	565.4745	26.223596	17.906082
0.8024	548.47207	26.193175	17.882918
0.80409997	536.23916	26.117779	17.625559
0.8058	533.80059	26.063361	17.659074
0.80750003	525.30056	26.00737	17.395997
0.8092	550.01908	26.092328	17.982656
0.81089997	547.57562	26.035071	17.87122
0.8126	541.80204	26.015882	17.870708
0.81430003	543.38083	25.900865	17.562862
0.816	560.91905	26.005063	17.951809
0.81769997	568.31653	26.123444	18.157193
0.8194	559.51139	26.281821	18.085801
0.82110003	564.50911	26.363226	18.209493
0.8228	547.41805	26.381559	18.019943
0.82449997	535.98854	26.365318	17.828149
0.8262	559.67261	26.54047	18.400632
0.82790003	538.18774	26.49829	18.404376
0.8296	556.02429	26.505254	18.142152
0.83129997	552.60359	26.582333	18.288241
0.833	523.18243	26.395553	17.728629
0.83470003	530.60097	26.466095	18.084082
0.8364	556.83724	26.570968	18.450116
0.83809997	540.36395	26.496409	18.009006
0.8398	538.72714	26.562281	18.121258
0.84150003	559.05508	26.599471	18.571671
0.8432	559.47742	26.749469	18.620484
0.84489997	556.52453	26.961523	18.692755
0.8466	558.82245	27.036309	18.597285
0.84830003	542.6108	27.024663	18.334394
0.85	541.18026	27.188795	18.517787
0.85169997	545.73064	27.299728	18.526939
0.8534	544.47188	27.478834	18.852083
0.85510003	554.82574	27.733138	19.083356
0.8568	563.03375	27.878275	19.258241
0.85849997	566.67641	28.197291	19.865129
0.8602	538.96749	28.194458	19.225828
0.86190003	528.90872	28.218555	18.858268
0.8636	532.99283	28.44949	19.201028
0.86529997	543.2521	28.685469	19.587191
0.867	563.82589	28.787094	19.817595
0.86870003	553.28209	28.814281	20.055311
0.8704	564.51896	28.959045	19.955619
0.87209997	538.84637	28.958501	19.37315
0.8738	547.31391	29.090468	19.671104
0.87550003	532.00285	29.185672	19.974563
0.8772	525.19931	29.216799	19.646634
0.87889997	543.66211	29.464614	20.078073
0.8806	539.38311	29.405982	19.556411
0.88230003	569.38907	29.683068	20.525258
0.884	574.59265	29.87665	20.759704
0.88569997	528.01598	29.702237	19.59876
0.8874	555.12843	30.039819	20.785163
0.88910003	545.45767	29.954285	20.412575
0.8908	537.24736	30.052541	20.603175
0.89249997	535.71061	30.123141	20.454834
0.8942	540.86077	30.188672	20.144699
0.89590003	532.017	30.25136	20.185388
0.8976	535.1129	30.338866	20.235962
0.89929997	549.14173	30.515134	20.572618
0.901	552.13113	30.615408	20.8876
0.90270003	556.81631	30.707452	21.11691
0.9044	566.88859	30.890411	21.631958
0.90609997	563.04136	30.984358	21.753102
0.9078	563.43203	31.075658	21.422434
0.90950003	542.48992	31.047444	21.080622
0.9112	532.09012	31.118046	21.205148
0.91289997	530.0989	31.534396	21.665925
0.9146	535.77719	31.755605	20.975995
0.91630003	570.3186	32.27646	22.140892
0.918	539.28481	32.546577	22.718117
0.91969997	540.46614	32.709259	22.668059
0.9214	564.67186	33.041098	23.088205
0.92310003	521.24075	32.968496	22.422681
0.9248	533.78184	33.269808	22.760449
0.92649997	534.77559	33.405618	22.384443
0.9282	585.9688	33.938842	23.828928
0.92990003	593.48705	34.181914	24.272411
0.9316	551.71457	34.108047	23.465001
0.93329997	518.23213	34.074147	22.55676
0.935	540.21175	34.503666	23.996051
0.93670003	514.95478	34.659084	23.94688
0.9384	503.91081	34.604047	22.805388
0.94009997	522.71964	34.917399	23.603757
0.9418	556.17454	35.356865	24.233287
0.94350003	527.51993	35.331943	23.786379
0.9452	521.89454	35.376705	23.461767
0.94689997	547.04495	35.929378	24.791969
0.9486	518.43486	35.925147	24.185617
0.95030003	535.2352	36.254041	24.814374
0.952	506.99113	36.087442	24.333034
0.95369997	539.0645	36.489215	24.712915
0.9554	554.30403	36.855238	25.313948
0.95710003	509.43778	36.74878	24.662054
0.9588	501.90001	36.847823	24.263214
0.96049997	565.47526	37.390788	25.681221
0.9622	567.5675	37.683715	27.004246
0.96390003	522.54604	37.385193	25.421003
0.9656	515.42636	37.503022	24.766737
0.96729997	507.30692	37.631284	24.898906
0.969	536.53837	37.978831	25.451597
0.97070003	554.62577	38.231784	25.961936
0.9724	530.8244	38.188412	25.812332
0.97409997	533.19615	38.619755	26.419013
0.9758	552.76428	38.822017	26.779317
0.97750003	556.8386	39.095337	26.765269
0.9792	505.51536	38.862293	25.365679
0.98089997	540.37339	39.390777	27.014855
0.9826	541.48001	39.634605	27.60363
0.98430003	529.0118	39.407687	26.433109
0.986	515.97884	39.564269	26.223845
0.98769997	538.2624	39.94174	27.354204
0.9894	546.18789	40.077576	27.318095
0.99110003	534.3749	40.194365	27.436485
0.9928	555.81436	40.491881	28.374473
0.99449997	541.35511	40.758165	28.789145
0.9962	554.2167	40.868006	28.348809
0.99790003	558.13988	40.887971	28.404522
0.9996	559.8017	41.02282	28.301193
1.0013	532.19444	41.257923	28.232667
1.003	515.69414	41.423933	28.270048
1.0047	529.50254	41.510681	28.20171
1.0064	525.83978	41.65021	27.767322
1.0081	514.82098	41.582687	26.870528
1.0098	533.64191	42.076132	27.941415
1.0115	555.23186	42.33597	28.522868
1.0132	547.61053	42.560072	28.942886
1.0149	542.09022	42.716805	28.382237
1.0166	555.60301	42.92461	29.151724
1.0183	584.79012	43.435219	31.103001
1.02	540.41909	43.206595	29.750878
1.0217	534.75755	43.386731	29.479347
1.0234	536.79423	43.657718	29.988196
1.0251	538.43913	44.054081	30.375996
1.0268	546.83013	44.021527	29.200927
1.0285	563.50498	44.415704	30.190677
1.0302	558.76059	44.655957	30.414675
1.0319	553.85392	44.97699	31.139356
1.0336	526.22803	44.976091	29.982242
1.0353	525.55106	45.022113	29.548762
1.037	527.688	45.622289	31.047632
1.0387	516.35802	45.759931	30.585583
1.0404	501.65953	45.840284	30.791897
1.0421	459.77972	45.892996	29.827831
1.0438	500.78236	46.300788	29.784394
1.0455	512.32398	46.815105	30.676064
1.0472	509.51143	46.895609	30.834627
1.0489	541.88914	47.445171	32.100834
1.0506	498.24874	47.376501	30.550417
1.0523	494.14744	47.502453	30.284214
1.054	501.70954	48.118698	32.20661
1.0557	531.04636	48.508306	33.027642
1.0574	526.78877	49.08105	34.231913
1.0591	529.62013	49.374806	34.276567
1.0608	555.8225	49.676656	34.915321
1.0625	563.28467	50.147347	35.260815
1.0642	534.97072	50.328383	34.888478
1.0659	500.53722	50.477476	33.961357
1.0676	516.76615	50.628467	33.068913
1.0693	487.99115	50.709337	33.185271
1.071	546.46676	51.774387	36.205447
1.0727	588.28524	52.22027	36.983855
1.0744	582.94426	52.577651	36.905208
1.0761	461.52525	51.903899	33.541524
1.0777999	512.01981	53.036253	35.927222
1.0795	565.6379	53.505439	36.871709
1.0812	516.61648	53.472954	36.448054
1.0829	494.95889	53.834408	35.206475
1.0846001	533.0002	54.213839	35.507702
1.0863	488.02332	54.447104	36.436802
1.088	529.41503	55.193572	37.618635
1.0897	520.51289	55.719687	38.498492
1.0913999	474.80366	55.799974	35.970969
1.0931	489.22255	55.999991	35.605204
1.0948	492.08817	56.544868	37.248473
1.0965	536.93511	57.552457	39.64149
1.0982001	473.24973	57.209082	36.498296
1.0999	514.92211	58.135473	38.579258
1.1016	543.18346	58.96022	39.950162
1.1033	491.34138	59.184455	38.088666
1.1049999	530.90395	59.319046	38.397021
1.1067	529.16129	60.142211	39.714829
1.1084	495.31825	60.201759	38.276096
1.1101	543.61788	61.543465	41.701635
1.1118001	505.63106	61.880041	41.491549
1.1135	494.016	62.027531	40.150311
1.1152	546.75842	63.435743	42.685271
1.1169	495.81519	63.235675	43.484588
1.1185999	519.90067	64.216904	45.006209
1.1203	538.25609	65.143535	45.119622
1.122	530.17226	66.040616	44.720447
1.1237	572.47258	67.208542	47.436064
1.1254001	555.61463	66.99951	47.035794
1.1271	509.87881	67.147878	43.738307
1.1288	537.33304	68.086428	44.863205
1.1305	526.25816	69.078817	46.600493
1.1321999	483.13932	68.903641	43.065871
1.1339	590.64502	71.231704	48.346025
1.1356	566.93429	72.233897	50.777498
1.1373	532.26904	72.06994	49.439971
1.1390001	545.45561	73.323512	50.959761
1.1407	581.18343	74.549465	51.99239
1.1424	559.29721	75.375074	50.650496
1.1441	525.78464	76.063454	51.057356
1.1457999	524.83741	76.602567	49.466976
1.1475	494.28732	77.887954	50.701298
1.1492	514.98232	78.552053	51.267199
1.1509	544.90088	79.710943	50.919061
1.1526001	480.27455	81.037217	53.421751
1.1543	521.19705	82.917945	54.001726
1.156	498.46598	83.568451	53.628984
1.1577	498.68812	84.579917	55.911503
1.1593999	571.06592	88.159363	64.954531
1.1611	508.15047	87.765808	61.033516
1.1628	459.63445	88.911784	57.893212
1.1645	461.57472	89.993578	54.892696
1.1662001	496.05979	93.370766	61.401213
1.1679	485.69909	95.261982	63.01936
1.1696	600.74218	98.185828	72.388338
1.1713	536.03901	98.466662	68.089575
1.1729999	553.54026	100.87553	65.805217
1.1747	489.5194	103.43964	67.90377
1.1764	462.00399	104.60791	65.382627
1.1781	602.73529	110.47628	76.932671
1.1798001	579.79511	111.73674	75.249919
1.1815	662.77061	115.77922	79.674971
1.1832	667.31597	120.20179	87.364212
1.1849	557.81277	121.08787	86.719255
1.1865999	601.94976	126.31947	93.612032
1.1883	493.0933	124.30101	77.168961
1.19	545.68187	129.15599	82.967737
1.1917	476.12178	131.88097	81.699429
1.1934001	575.03828	138.27649	90.671911
1.1951	566.60571	141.94257	95.872869
1.1968	515.95974	145.3825	95.576643
1.1985	528.77875	151.43697	104.1706
1.2001999	649.50077	161.50547	120.78296
1.2019	649.34114	165.3062	125.90775
1.2036	507.96702	163.98565	107.99408
1.2053	563.3046	170.32404	105.86959
1.2070001	638.82382	177.43878	127.61552
1.2087	672.97398	188.7029	144.29817
1.2104	628.55424	190.4941	132.11728
1.2121	667.98038	198.63178	136.31909
1.2137999	701.85845	216.91297	167.20831
1.2155	597.95988	219.53786	170.51451
1.2172	841.18639	246.9887	207.93385
1.2189	736.89521	247.96117	186.36769
1.2206001	648.35942	257.85132	177.63973
1.2223	503.48605	280.37272	184.21466
1.224	348.54332	290.95296	167.53683
1.2257	469.80512	316.47137	189.13923
1.2273999	570.65384	348.44122	251.05397
1.2291	435.98909	354.83147	199.41242
1.2308	160.16867	379.31644	146.07969
1.2325	328.32234	418.83809	212.15596
1.2342001	639.57686	478.66133	362.68989
1.2359	978.85605	595.38498	498.65456
1.2376	367.25854	629.62825	342.78254
